data_num,trick_type,time,mag_x,mag_y,mag_z,acc_x,acc_y,acc_z,gyro_x,gyro_y,gyro_z
1.0,0.0,9893554.0,1379.0,-1977.0,-566.0,0.0,14.85,0.0,0.0,-2.89,0.0
1.0,0.0,9906250.0,1370.0,-2032.0,-528.0,0.0,14.85,0.0,0.0,-2.89,0.0
1.0,0.0,9918945.0,1366.0,-2017.0,-542.0,0.0,14.85,0.0,0.0,-2.89,0.0
1.0,0.0,9931640.0,1335.0,-1999.0,-529.0,0.0,14.85,0.0,0.0,-2.89,0.0
1.0,0.0,9945312.0,1341.0,-2002.0,-512.0,0.0,14.85,0.0,0.0,-2.89,0.0
1.0,0.0,9957031.0,1326.0,-2007.0,-579.0,0.0,14.85,0.0,0.0,-2.89,0.0
1.0,0.0,9969726.0,1356.0,-2026.0,-537.0,0.0,14.85,0.0,0.0,-2.89,0.0
1.0,0.0,9982421.0,1351.0,-2030.0,-583.0,0.0,14.85,0.0,0.0,-2.89,0.0
1.0,0.0,9995117.0,1324.0,-1980.0,-570.0,0.0,14.85,0.0,0.0,-2.89,0.0
1.0,0.0,10007812.0,1339.0,-2041.0,-556.0,0.0,14.85,0.0,0.0,-2.89,0.0
1.0,0.0,10020507.0,1347.0,-1995.0,-571.0,0.0,14.85,0.0,0.0,-2.89,0.0
1.0,0.0,10033203.0,1347.0,-2003.0,-578.0,0.0,14.85,0.0,0.0,-2.89,0.0
1.0,0.0,10045898.0,1339.0,-1995.0,-541.0,0.0,14.85,0.0,0.0,-2.89,0.0
1.0,0.0,10058593.0,1327.0,-2028.0,-521.0,0.0,14.85,0.0,0.0,-2.89,0.0
1.0,0.0,10071289.0,1341.0,-2001.0,-516.0,0.0,14.85,0.0,0.0,-2.89,0.0
1.0,0.0,10083984.0,1358.0,-2027.0,-582.0,0.0,14.85,0.0,0.0,-2.89,0.0
1.0,0.0,10096679.0,1317.0,-2016.0,-515.0,0.0,14.85,0.0,0.0,-2.89,0.0
1.0,0.0,10109375.0,1350.0,-2019.0,-518.0,0.0,14.85,0.0,0.0,-2.89,0.0
1.0,0.0,10122070.0,1368.0,-2007.0,-481.0,0.0,14.85,0.0,0.0,-2.89,0.0
1.0,0.0,10134765.0,1357.0,-2000.0,-535.0,0.0,14.85,0.0,0.0,-2.89,0.0
1.0,0.0,10147460.0,1354.0,-2031.0,-499.0,0.0,14.85,0.0,0.0,-2.89,0.0
1.0,0.0,10160156.0,1346.0,-2008.0,-559.0,0.0,14.85,0.0,0.0,-2.89,0.0
1.0,0.0,10172851.0,1320.0,-2031.0,-538.0,0.0,14.85,0.0,0.0,-2.89,0.0
1.0,0.0,10185546.0,1335.0,-2020.0,-483.0,0.0,14.85,0.0,0.0,-2.89,0.0
1.0,0.0,10198242.0,1348.0,-2046.0,-507.0,0.0,14.85,0.0,0.0,-2.89,0.0
1.0,0.0,10210937.0,1355.0,-2010.0,-545.0,0.0,14.85,0.0,0.0,-2.89,0.0
1.0,0.0,10223632.0,1369.0,-2012.0,-548.0,0.0,14.85,0.0,0.0,-2.89,0.0
1.0,0.0,10236328.0,1361.0,-2037.0,-567.0,0.0,14.85,0.0,0.0,-2.89,0.0
1.0,0.0,10249023.0,1396.0,-2021.0,-553.0,0.0,14.85,0.0,0.0,-2.89,0.0
1.0,0.0,10261718.0,1357.0,-2051.0,-538.0,0.0,14.85,0.0,0.0,-2.89,0.0
1.0,0.0,10274414.0,1350.0,-2023.0,-542.0,0.0,14.85,0.0,0.0,-2.89,0.0
1.0,0.0,10287109.0,1361.0,-2050.0,-517.0,0.0,14.85,0.0,0.0,-2.89,0.0
1.0,0.0,10299804.0,1374.0,-2032.0,-567.0,0.0,14.85,0.0,0.0,-2.89,0.0
1.0,0.0,10312500.0,1342.0,-2035.0,-514.0,0.0,14.85,0.0,0.0,-2.89,0.0
1.0,0.0,10325195.0,1366.0,-2010.0,-537.0,0.0,14.85,0.0,0.0,-2.89,0.0
1.0,0.0,10337890.0,1376.0,-2013.0,-546.0,0.0,14.85,0.0,0.0,-2.89,0.0
1.0,0.0,10350585.0,1350.0,-2006.0,-551.0,0.0,14.85,0.0,0.0,-2.89,0.0
1.0,0.0,10364257.0,1345.0,-2029.0,-509.0,0.0,14.85,0.0,0.0,-2.89,0.0
1.0,0.0,10375976.0,1357.0,-2027.0,-524.0,0.0,14.85,0.0,0.0,-2.89,0.0
1.0,0.0,10388671.0,1373.0,-2021.0,-542.0,0.0,14.85,0.0,0.0,-2.89,0.0
1.0,0.0,10401367.0,1373.0,-2034.0,-578.0,0.0,14.85,0.0,0.0,-2.89,0.0
1.0,0.0,10414062.0,1377.0,-2018.0,-575.0,0.0,14.85,0.0,0.0,-2.89,0.0
1.0,0.0,10426757.0,1378.0,-2010.0,-588.0,0.0,14.85,0.0,0.0,-2.89,0.0
1.0,0.0,10439453.0,1375.0,-2026.0,-565.0,0.0,14.85,0.0,0.0,-2.89,0.0
1.0,0.0,10452148.0,1339.0,-2025.0,-578.0,0.0,14.85,0.0,0.0,-2.89,0.0
1.0,0.0,10464843.0,1353.0,-2045.0,-552.0,0.0,14.85,0.0,0.0,-2.89,0.0
1.0,0.0,10477539.0,1352.0,-2085.0,-540.0,0.0,14.85,0.0,0.0,-2.89,0.0
1.0,0.0,10490234.0,1310.0,-2127.0,-547.0,0.0,14.85,0.0,0.0,-2.89,0.0
1.0,0.0,10502929.0,1267.0,-2177.0,-503.0,0.0,14.85,0.0,0.0,-2.89,0.0
1.0,0.0,10515625.0,1205.0,-2189.0,-507.0,0.0,14.85,0.0,0.0,-2.89,0.0
1.0,0.0,10528320.0,1167.0,-2265.0,-437.0,0.0,14.85,0.0,0.0,-2.89,0.0
1.0,0.0,10541015.0,1192.0,-2312.0,-421.0,0.0,14.85,0.0,0.0,-2.89,0.0
1.0,0.0,10553710.0,1094.0,-2384.0,-452.0,0.0,14.85,0.0,0.0,-2.89,0.0
1.0,0.0,10566406.0,1089.0,-2411.0,-410.0,0.0,14.85,0.0,0.0,-2.89,0.0
1.0,0.0,10579101.0,1039.0,-2457.0,-406.0,0.0,14.85,0.0,0.0,-2.89,0.0
1.0,0.0,10591796.0,1065.0,-2480.0,-379.0,0.0,14.85,0.0,0.0,-2.89,0.0
1.0,0.0,10604492.0,1053.0,-2495.0,-394.0,0.0,14.85,0.0,0.0,-2.89,0.0
1.0,0.0,10617187.0,1031.0,-2481.0,-352.0,0.0,14.85,0.0,0.0,-2.89,0.0
1.0,0.0,10629882.0,1059.0,-2493.0,-363.0,0.0,14.85,0.0,0.0,-2.89,0.0
1.0,0.0,10642578.0,1052.0,-2486.0,-333.0,0.0,14.85,0.0,0.0,-2.89,0.0
1.0,0.0,10655273.0,1040.0,-2482.0,-389.0,0.0,14.85,0.0,0.0,-2.89,0.0
1.0,0.0,10667968.0,1048.0,-2488.0,-382.0,0.0,14.85,0.0,0.0,-2.89,0.0
1.0,0.0,10680664.0,1063.0,-2501.0,-410.0,0.0,14.85,0.0,0.0,-2.89,0.0
1.0,0.0,10693359.0,1047.0,-2486.0,-423.0,0.0,14.85,0.0,0.0,-2.89,0.0
1.0,0.0,10706054.0,996.0,-2482.0,-432.0,0.0,14.85,0.0,0.0,-2.89,0.0
1.0,0.0,10718750.0,1025.0,-2484.0,-429.0,0.0,14.85,0.0,0.0,-2.89,0.0
1.0,0.0,10731445.0,1018.0,-2475.0,-383.0,0.0,14.85,0.0,0.0,-2.89,0.0
1.0,0.0,10744140.0,1018.0,-2515.0,-403.0,0.0,14.85,0.0,0.0,-2.89,0.0
1.0,0.0,10756835.0,1024.0,-2494.0,-387.0,0.0,14.85,0.0,0.0,-2.89,0.0
1.0,0.0,10769531.0,1010.0,-2502.0,-400.0,0.0,14.85,0.0,0.0,-2.89,0.0
1.0,0.0,10782226.0,1030.0,-2493.0,-410.0,0.0,14.85,0.0,0.0,-2.89,0.0
1.0,0.0,10794921.0,1027.0,-2486.0,-363.0,0.0,14.85,0.0,0.0,-2.89,0.0
1.0,0.0,10807617.0,1037.0,-2490.0,-397.0,0.0,14.85,0.0,0.0,-2.89,0.0
1.0,0.0,10820312.0,1043.0,-2505.0,-422.0,0.0,14.85,0.0,0.0,-2.89,0.0
1.0,0.0,10833007.0,1021.0,-2484.0,-437.0,0.0,14.85,0.0,0.0,-2.89,0.0
1.0,0.0,10845703.0,1006.0,-2490.0,-424.0,0.0,14.85,0.0,0.0,-2.89,0.0
1.0,0.0,10858398.0,1015.0,-2487.0,-394.0,0.0,14.85,0.0,0.0,-2.89,0.0
1.0,0.0,10871093.0,1025.0,-2516.0,-410.0,0.0,14.85,0.0,0.0,-2.89,0.0
1.0,0.0,10883789.0,1022.0,-2496.0,-417.0,0.0,14.85,0.0,0.0,-2.89,0.0
1.0,0.0,10896484.0,1047.0,-2496.0,-427.0,0.0,14.85,0.0,0.0,-2.89,0.0
1.0,0.0,10909179.0,1040.0,-2489.0,-450.0,0.0,14.85,0.0,0.0,-2.89,0.0
1.0,0.0,10921875.0,1060.0,-2492.0,-457.0,0.0,14.85,0.0,0.0,-2.89,0.0
1.0,0.0,10934570.0,1064.0,-2545.0,-431.0,0.0,14.85,0.0,0.0,-2.89,0.0
1.0,0.0,10947265.0,1042.0,-2513.0,-407.0,0.0,14.85,0.0,0.0,-2.89,0.0
1.0,0.0,10959960.0,1069.0,-2528.0,-413.0,0.0,14.85,0.0,0.0,-2.89,0.0
1.0,0.0,10972656.0,1043.0,-2516.0,-419.0,0.0,14.85,0.0,0.0,-2.89,0.0
1.0,0.0,10985351.0,1064.0,-2531.0,-406.0,0.0,14.85,0.0,0.0,-2.89,0.0
1.0,0.0,10998046.0,1064.0,-2522.0,-426.0,0.0,14.85,0.0,0.0,-2.89,0.0
1.0,0.0,11010742.0,1060.0,-2528.0,-411.0,0.0,14.85,0.0,0.0,-2.89,0.0
1.0,0.0,11023437.0,1067.0,-2519.0,-418.0,0.0,14.85,0.0,0.0,-2.89,0.0
1.0,0.0,11036132.0,1067.0,-2502.0,-408.0,0.0,14.85,0.0,0.0,-2.89,0.0
1.0,0.0,11048828.0,1056.0,-2496.0,-412.0,0.0,14.85,0.0,0.0,-2.89,0.0
1.0,0.0,11061523.0,1035.0,-2520.0,-400.0,0.0,14.85,0.0,0.0,-2.89,0.0
1.0,0.0,11074218.0,1031.0,-2525.0,-399.0,0.0,14.85,0.0,0.0,-2.89,0.0
1.0,0.0,11086914.0,1040.0,-2487.0,-380.0,0.0,14.85,0.0,0.0,-2.89,0.0
1.0,0.0,11099609.0,1053.0,-2507.0,-428.0,0.0,14.85,0.0,0.0,-2.89,0.0
1.0,0.0,11112304.0,1033.0,-2502.0,-378.0,0.0,14.85,0.0,0.0,-2.89,0.0
1.0,0.0,11125000.0,1052.0,-2516.0,-394.0,0.0,14.85,0.0,0.0,-2.89,0.0
1.0,0.0,11137695.0,1076.0,-2497.0,-354.0,0.0,14.85,0.0,0.0,-2.89,0.0
1.0,0.0,11150390.0,1032.0,-2496.0,-358.0,0.0,14.85,0.0,0.0,-2.89,0.0
1.0,0.0,11163085.0,1004.0,-2515.0,-379.0,0.0,14.85,0.0,0.0,-2.89,0.0
1.0,0.0,11175781.0,1036.0,-2496.0,-413.0,0.0,14.85,0.0,0.0,-2.89,0.0
1.0,0.0,11188476.0,1018.0,-2499.0,-431.0,0.0,14.85,0.0,0.0,-2.89,0.0
1.0,0.0,11201171.0,1047.0,-2525.0,-364.0,0.0,14.85,0.0,0.0,-2.89,0.0
1.0,0.0,11213867.0,1013.0,-2494.0,-411.0,0.0,14.85,0.0,0.0,-2.89,0.0
1.0,0.0,11226562.0,1033.0,-2492.0,-400.0,0.0,14.85,0.0,0.0,-2.89,0.0
1.0,0.0,11239257.0,1087.0,-2517.0,-398.0,0.0,14.85,0.0,0.0,-2.89,0.0
1.0,0.0,11251953.0,1039.0,-2508.0,-358.0,0.0,14.85,0.0,0.0,-2.89,0.0
1.0,0.0,11264648.0,1040.0,-2539.0,-371.0,0.0,14.85,0.0,0.0,-2.89,0.0
1.0,0.0,11277343.0,1065.0,-2530.0,-379.0,0.0,14.85,0.0,0.0,-2.89,0.0
1.0,0.0,11290039.0,1066.0,-2526.0,-393.0,0.0,14.85,0.0,0.0,-2.89,0.0
1.0,0.0,11302734.0,1048.0,-2533.0,-348.0,0.0,14.85,0.0,0.0,-2.89,0.0
1.0,0.0,11315429.0,1036.0,-2543.0,-362.0,0.0,14.85,0.0,0.0,-2.89,0.0
1.0,0.0,11328125.0,1061.0,-2518.0,-374.0,0.0,14.85,0.0,0.0,-2.89,0.0
1.0,0.0,11340820.0,1041.0,-2518.0,-352.0,0.0,14.85,0.0,0.0,-2.89,0.0
1.0,0.0,11353515.0,1047.0,-2541.0,-384.0,0.0,14.85,0.0,0.0,-2.89,0.0
1.0,0.0,11366210.0,1009.0,-2536.0,-348.0,0.0,14.85,0.0,0.0,-2.89,0.0
1.0,0.0,11378906.0,1034.0,-2511.0,-386.0,0.0,14.85,0.0,0.0,-2.89,0.0
1.0,0.0,11391601.0,1074.0,-2501.0,-300.0,0.0,14.85,0.0,0.0,-2.89,0.0
1.0,0.0,11404296.0,1026.0,-2496.0,-326.0,0.0,14.85,0.0,0.0,-2.89,0.0
1.0,0.0,11416992.0,1052.0,-2475.0,-348.0,0.0,14.85,0.0,0.0,-2.89,0.0
1.0,0.0,11429687.0,1046.0,-2513.0,-379.0,0.0,14.85,0.0,0.0,-2.89,0.0
1.0,0.0,11442382.0,1027.0,-2488.0,-385.0,0.0,14.85,0.0,0.0,-2.89,0.0
1.0,0.0,11455078.0,1041.0,-2484.0,-392.0,0.0,14.85,0.0,0.0,-2.89,0.0
1.0,0.0,11467773.0,1036.0,-2520.0,-354.0,0.0,14.85,0.0,0.0,-2.89,0.0
1.0,0.0,11480468.0,1043.0,-2474.0,-370.0,0.0,14.85,0.0,0.0,-2.89,0.0
1.0,0.0,11493164.0,1020.0,-2508.0,-366.0,0.0,14.85,0.0,0.0,-2.89,0.0
1.0,0.0,11505859.0,1047.0,-2509.0,-394.0,0.0,14.85,0.0,0.0,-2.89,0.0
1.0,0.0,11518554.0,1040.0,-2512.0,-326.0,0.0,14.85,0.0,0.0,-2.89,0.0
1.0,0.0,11531250.0,1051.0,-2529.0,-430.0,0.0,14.85,0.0,0.0,-2.89,0.0
1.0,0.0,11543945.0,1046.0,-2521.0,-425.0,0.0,14.85,0.0,0.0,-2.89,0.0
1.0,0.0,11556640.0,1045.0,-2504.0,-389.0,0.0,14.85,0.0,0.0,-2.89,0.0
1.0,0.0,11569335.0,1067.0,-2506.0,-373.0,0.0,14.85,0.0,0.0,-2.89,0.0
1.0,0.0,11582031.0,1075.0,-2498.0,-392.0,0.0,14.85,0.0,0.0,-2.89,0.0
1.0,0.0,11594726.0,1038.0,-2486.0,-400.0,0.0,14.85,0.0,0.0,-2.89,0.0
1.0,0.0,11607421.0,1038.0,-2492.0,-482.0,0.0,14.85,0.0,0.0,-2.89,0.0
1.0,0.0,11620117.0,1037.0,-2506.0,-392.0,0.0,14.85,0.0,0.0,-2.89,0.0
1.0,0.0,11632812.0,1063.0,-2536.0,-420.0,0.0,14.85,0.0,0.0,-2.89,0.0
1.0,0.0,11645507.0,1057.0,-2518.0,-417.0,0.0,14.85,0.0,0.0,-2.89,0.0
1.0,0.0,11658203.0,1041.0,-2477.0,-436.0,0.0,14.85,0.0,0.0,-2.89,0.0
1.0,0.0,11670898.0,1062.0,-2479.0,-423.0,0.0,14.85,0.0,0.0,-2.89,0.0
1.0,0.0,11683593.0,1046.0,-2529.0,-479.0,0.0,14.85,0.0,0.0,-2.89,0.0
1.0,0.0,11696289.0,1060.0,-2493.0,-424.0,0.0,14.85,0.0,0.0,-2.89,0.0
1.0,0.0,11708984.0,1044.0,-2502.0,-409.0,0.0,14.85,0.0,0.0,-2.89,0.0
1.0,0.0,11721679.0,1042.0,-2543.0,-375.0,0.0,14.85,0.0,0.0,-2.89,0.0
1.0,0.0,11734375.0,1044.0,-2502.0,-369.0,0.0,14.85,0.0,0.0,-2.89,0.0
1.0,0.0,11747070.0,1058.0,-2524.0,-335.0,0.0,14.85,0.0,0.0,-2.89,0.0
1.0,0.0,11759765.0,1057.0,-2506.0,-368.0,0.0,14.85,0.0,0.0,-2.89,0.0
1.0,0.0,11772460.0,1035.0,-2502.0,-394.0,0.0,14.85,0.0,0.0,-2.89,0.0
1.0,0.0,11785156.0,1027.0,-2512.0,-416.0,0.0,14.85,0.0,0.0,-2.89,0.0
1.0,0.0,11797851.0,1019.0,-2514.0,-356.0,0.0,14.85,0.0,0.0,-2.89,0.0
1.0,0.0,11810546.0,1036.0,-2505.0,-396.0,0.0,14.85,0.0,0.0,-2.89,0.0
1.0,0.0,11823242.0,1033.0,-2512.0,-404.0,0.0,14.85,0.0,0.0,-2.89,0.0
1.0,0.0,11835937.0,1027.0,-2482.0,-376.0,0.0,14.85,0.0,0.0,-2.89,0.0
1.0,0.0,11848632.0,1046.0,-2492.0,-412.0,0.0,14.85,0.0,0.0,-2.89,0.0
1.0,0.0,11861328.0,1061.0,-2487.0,-390.0,0.0,14.85,0.0,0.0,-2.89,0.0
1.0,0.0,11874023.0,1053.0,-2498.0,-393.0,0.0,14.85,0.0,0.0,-2.89,0.0
1.0,0.0,11886718.0,1038.0,-2494.0,-384.0,0.0,14.85,0.0,0.0,-2.89,0.0
1.0,0.0,11899414.0,1061.0,-2493.0,-426.0,0.0,14.85,0.0,0.0,-2.89,0.0
1.0,0.0,11912109.0,1082.0,-2494.0,-380.0,0.0,14.85,0.0,0.0,-2.89,0.0
1.0,0.0,11924804.0,1074.0,-2486.0,-379.0,0.0,14.85,0.0,0.0,-2.89,0.0
1.0,0.0,11937500.0,1083.0,-2510.0,-416.0,0.0,14.85,0.0,0.0,-2.89,0.0
1.0,0.0,11950195.0,1039.0,-2483.0,-410.0,0.0,14.85,0.0,0.0,-2.89,0.0
1.0,0.0,11962890.0,1042.0,-2487.0,-380.0,0.0,14.85,0.0,0.0,-2.89,0.0
1.0,0.0,11975585.0,1092.0,-2497.0,-412.0,0.0,14.85,0.0,0.0,-2.89,0.0
1.0,0.0,11988281.0,1043.0,-2502.0,-387.0,0.0,14.85,0.0,0.0,-2.89,0.0
1.0,0.0,12000976.0,1034.0,-2511.0,-395.0,0.0,14.85,0.0,0.0,-2.89,0.0
1.0,0.0,12013671.0,1045.0,-2491.0,-381.0,0.0,14.85,0.0,0.0,-2.89,0.0
1.0,0.0,12026367.0,1044.0,-2507.0,-412.0,0.0,14.85,0.0,0.0,-2.89,0.0
1.0,0.0,12039062.0,1039.0,-2471.0,-410.0,0.0,14.85,0.0,0.0,-2.89,0.0
1.0,0.0,12051757.0,1056.0,-2482.0,-387.0,0.0,14.85,0.0,0.0,-2.89,0.0
1.0,0.0,12064453.0,1045.0,-2512.0,-422.0,0.0,14.85,0.0,0.0,-2.89,0.0
1.0,0.0,12077148.0,1044.0,-2482.0,-483.0,0.0,14.85,0.0,0.0,-2.89,0.0
1.0,0.0,12089843.0,1034.0,-2504.0,-448.0,0.0,14.85,0.0,0.0,-2.89,0.0
1.0,0.0,12102539.0,1050.0,-2483.0,-444.0,0.0,14.85,0.0,0.0,-2.89,0.0
1.0,0.0,12115234.0,1041.0,-2486.0,-424.0,0.0,14.85,0.0,0.0,-2.89,0.0
1.0,0.0,12127929.0,1026.0,-2506.0,-422.0,0.0,14.85,0.0,0.0,-2.89,0.0
1.0,0.0,12140625.0,1023.0,-2489.0,-400.0,0.0,14.85,0.0,0.0,-2.89,0.0
1.0,0.0,12153320.0,1036.0,-2517.0,-436.0,0.0,14.85,0.0,0.0,-2.89,0.0
1.0,0.0,12166015.0,1071.0,-2501.0,-372.0,0.0,14.85,0.0,0.0,-2.89,0.0
1.0,0.0,12178710.0,1052.0,-2512.0,-413.0,0.0,14.85,0.0,0.0,-2.89,0.0
1.0,0.0,12191406.0,1087.0,-2501.0,-391.0,0.0,14.85,0.0,0.0,-2.89,0.0
1.0,0.0,12204101.0,1070.0,-2507.0,-441.0,0.0,14.85,0.0,0.0,-2.89,0.0
1.0,0.0,12216796.0,1076.0,-2512.0,-416.0,0.0,14.85,0.0,0.0,-2.89,0.0
1.0,0.0,12229492.0,1066.0,-2503.0,-444.0,0.0,14.85,0.0,0.0,-2.89,0.0
1.0,0.0,12242187.0,1043.0,-2513.0,-400.0,0.0,14.85,0.0,0.0,-2.89,0.0
1.0,0.0,12255859.0,1067.0,-2501.0,-414.0,0.0,14.85,0.0,0.0,-2.89,0.0
1.0,0.0,12267578.0,1074.0,-2493.0,-404.0,0.0,14.85,0.0,0.0,-2.89,0.0
1.0,0.0,12280273.0,1078.0,-2495.0,-417.0,0.0,14.85,0.0,0.0,-2.89,0.0
1.0,0.0,12292968.0,1086.0,-2482.0,-426.0,0.0,14.85,0.0,0.0,-2.89,0.0
1.0,0.0,12305664.0,1064.0,-2511.0,-422.0,0.0,14.85,0.0,0.0,-2.89,0.0
1.0,0.0,12318359.0,1052.0,-2506.0,-469.0,0.0,14.85,0.0,0.0,-2.89,0.0
1.0,0.0,12331054.0,1027.0,-2512.0,-402.0,0.0,14.85,0.0,0.0,-2.89,0.0
1.0,0.0,12343750.0,1035.0,-2515.0,-405.0,0.0,14.85,0.0,0.0,-2.89,0.0
1.0,0.0,12356445.0,1001.0,-2502.0,-409.0,0.0,14.85,0.0,0.0,-2.89,0.0
1.0,0.0,12369140.0,1035.0,-2529.0,-462.0,0.0,14.85,0.0,0.0,-2.89,0.0
1.0,0.0,12381835.0,1037.0,-2521.0,-423.0,0.0,14.85,0.0,0.0,-2.89,0.0
1.0,0.0,12394531.0,1048.0,-2488.0,-422.0,0.0,14.85,0.0,0.0,-2.89,0.0
1.0,0.0,12407226.0,1049.0,-2485.0,-424.0,0.0,14.85,0.0,0.0,-2.89,0.0
1.0,0.0,12419921.0,1049.0,-2506.0,-427.0,0.0,14.85,0.0,0.0,-2.89,0.0
1.0,0.0,12432617.0,1049.0,-2489.0,-446.0,0.0,14.85,0.0,0.0,-2.89,0.0
1.0,0.0,12445312.0,1033.0,-2491.0,-427.0,0.0,14.85,0.0,0.0,-2.89,0.0
1.0,0.0,12458007.0,1011.0,-2481.0,-407.0,0.0,14.85,0.0,0.0,-2.89,0.0
1.0,0.0,12470703.0,994.0,-2511.0,-367.0,0.0,14.85,0.0,0.0,-2.89,0.0
1.0,0.0,12483398.0,1034.0,-2481.0,-411.0,0.0,14.85,0.0,0.0,-2.89,0.0
1.0,0.0,12496093.0,1036.0,-2486.0,-439.0,0.0,14.85,0.0,0.0,-2.89,0.0
1.0,0.0,12508789.0,1038.0,-2505.0,-440.0,0.0,14.85,0.0,0.0,-2.89,0.0
1.0,0.0,12521484.0,1009.0,-2495.0,-422.0,0.0,14.85,0.0,0.0,-2.89,0.0
1.0,0.0,12534179.0,1030.0,-2509.0,-430.0,0.0,14.85,0.0,0.0,-2.89,0.0
1.0,0.0,12546875.0,1053.0,-2495.0,-411.0,0.0,14.85,0.0,0.0,-2.89,0.0
1.0,0.0,12559570.0,1032.0,-2509.0,-449.0,0.0,14.85,0.0,0.0,-2.89,0.0
1.0,0.0,12572265.0,1065.0,-2480.0,-430.0,0.0,14.85,0.0,0.0,-2.89,0.0
1.0,0.0,12584960.0,1041.0,-2479.0,-428.0,0.0,14.85,0.0,0.0,-2.89,0.0
1.0,0.0,12597656.0,1033.0,-2488.0,-380.0,0.0,14.85,0.0,0.0,-2.89,0.0
1.0,0.0,12610351.0,1037.0,-2485.0,-422.0,0.0,14.85,0.0,0.0,-2.89,0.0
1.0,0.0,12623046.0,1050.0,-2471.0,-444.0,0.0,14.85,0.0,0.0,-2.89,0.0
1.0,0.0,12635742.0,1029.0,-2493.0,-417.0,0.0,14.85,0.0,0.0,-2.89,0.0
1.0,0.0,12648437.0,1035.0,-2461.0,-433.0,0.0,14.85,0.0,0.0,-2.89,0.0
1.0,0.0,12661132.0,1048.0,-2486.0,-434.0,0.0,14.85,0.0,0.0,-2.89,0.0
1.0,0.0,12673828.0,1046.0,-2462.0,-450.0,0.0,14.85,0.0,0.0,-2.89,0.0
1.0,0.0,12686523.0,1034.0,-2472.0,-415.0,0.0,14.85,0.0,0.0,-2.89,0.0
1.0,0.0,12699218.0,1060.0,-2502.0,-439.0,0.0,14.85,0.0,0.0,-2.89,0.0
1.0,0.0,12711914.0,1063.0,-2477.0,-408.0,0.0,14.85,0.0,0.0,-2.89,0.0
1.0,0.0,12724609.0,1046.0,-2473.0,-459.0,0.0,14.85,0.0,0.0,-2.89,0.0
1.0,0.0,12737304.0,1043.0,-2484.0,-430.0,0.0,14.85,0.0,0.0,-2.89,0.0
1.0,0.0,12750000.0,1065.0,-2496.0,-365.0,0.0,14.85,0.0,0.0,-2.89,0.0
1.0,0.0,12762695.0,1048.0,-2487.0,-396.0,0.0,14.85,0.0,0.0,-2.89,0.0
1.0,0.0,12775390.0,1038.0,-2472.0,-395.0,0.0,14.85,0.0,0.0,-2.89,0.0
1.0,0.0,12788085.0,1054.0,-2484.0,-453.0,0.0,14.85,0.0,0.0,-2.89,0.0
1.0,0.0,12800781.0,1064.0,-2504.0,-384.0,0.0,14.85,0.0,0.0,-2.89,0.0
1.0,0.0,12813476.0,1042.0,-2476.0,-386.0,0.0,14.85,0.0,0.0,-2.89,0.0
1.0,0.0,12826171.0,1057.0,-2496.0,-450.0,0.0,14.85,0.0,0.0,-2.89,0.0
1.0,0.0,12838867.0,1036.0,-2481.0,-367.0,0.0,14.85,0.0,0.0,-2.89,0.0
1.0,0.0,12851562.0,1058.0,-2491.0,-398.0,0.0,14.85,0.0,0.0,-2.89,0.0
1.0,0.0,12864257.0,1031.0,-2475.0,-406.0,0.0,14.85,0.0,0.0,-2.89,0.0
1.0,0.0,12876953.0,1045.0,-2477.0,-405.0,0.0,14.85,0.0,0.0,-2.89,0.0
1.0,0.0,12889648.0,1041.0,-2477.0,-399.0,0.0,14.85,0.0,0.0,-2.89,0.0
1.0,0.0,12902343.0,1023.0,-2501.0,-360.0,0.0,14.85,0.0,0.0,-2.89,0.0
1.0,0.0,12915039.0,1066.0,-2500.0,-401.0,0.0,14.85,0.0,0.0,-2.89,0.0
1.0,0.0,12927734.0,1048.0,-2503.0,-421.0,0.0,14.85,0.0,0.0,-2.89,0.0
1.0,0.0,12940429.0,1037.0,-2495.0,-393.0,0.0,14.85,0.0,0.0,-2.89,0.0
1.0,0.0,12953125.0,1035.0,-2506.0,-410.0,0.0,14.85,0.0,0.0,-2.89,0.0
1.0,0.0,12965820.0,1067.0,-2462.0,-404.0,0.0,14.85,0.0,0.0,-2.89,0.0
1.0,0.0,12978515.0,1081.0,-2500.0,-382.0,0.0,14.85,0.0,0.0,-2.89,0.0
1.0,0.0,12991210.0,1077.0,-2472.0,-399.0,0.0,14.85,0.0,0.0,-2.89,0.0
1.0,0.0,13003906.0,1069.0,-2466.0,-389.0,0.0,14.85,0.0,0.0,-2.89,0.0
1.0,0.0,13016601.0,1061.0,-2492.0,-429.0,0.0,14.85,0.0,0.0,-2.89,0.0
1.0,0.0,13029296.0,1069.0,-2489.0,-379.0,0.0,14.85,0.0,0.0,-2.89,0.0
1.0,0.0,13041992.0,1067.0,-2504.0,-409.0,0.0,14.85,0.0,0.0,-2.89,0.0
1.0,0.0,13054687.0,1061.0,-2496.0,-371.0,0.0,14.85,0.0,0.0,-2.89,0.0
1.0,0.0,13067382.0,1040.0,-2479.0,-359.0,0.0,14.85,0.0,0.0,-2.89,0.0
1.0,0.0,13080078.0,1083.0,-2493.0,-425.0,0.0,14.85,0.0,0.0,-2.89,0.0
1.0,0.0,13092773.0,1084.0,-2491.0,-378.0,0.0,14.85,0.0,0.0,-2.89,0.0
1.0,0.0,13105468.0,1077.0,-2503.0,-433.0,0.0,14.85,0.0,0.0,-2.89,0.0
1.0,0.0,13118164.0,1067.0,-2502.0,-397.0,0.0,14.85,0.0,0.0,-2.89,0.0
1.0,0.0,13130859.0,1057.0,-2503.0,-348.0,0.0,14.85,0.0,0.0,-2.89,0.0
1.0,0.0,13143554.0,1086.0,-2495.0,-384.0,0.0,14.85,0.0,0.0,-2.89,0.0
1.0,0.0,13156250.0,1042.0,-2482.0,-346.0,0.0,14.85,0.0,0.0,-2.89,0.0
1.0,0.0,13168945.0,1027.0,-2509.0,-362.0,0.0,14.85,0.0,0.0,-2.89,0.0
1.0,0.0,13181640.0,1036.0,-2508.0,-380.0,0.0,14.85,0.0,0.0,-2.89,0.0
1.0,0.0,13194335.0,1039.0,-2474.0,-354.0,0.0,14.85,0.0,0.0,-2.89,0.0
1.0,0.0,13207031.0,1046.0,-2464.0,-354.0,0.0,14.85,0.0,0.0,-2.89,0.0
1.0,0.0,13219726.0,1070.0,-2493.0,-339.0,0.0,14.85,0.0,0.0,-2.89,0.0
1.0,0.0,13232421.0,1058.0,-2497.0,-401.0,0.0,14.85,0.0,0.0,-2.89,0.0
1.0,0.0,13246093.0,1068.0,-2478.0,-362.0,0.0,14.85,0.0,0.0,-2.89,0.0
1.0,0.0,13257812.0,1019.0,-2499.0,-357.0,0.0,14.85,0.0,0.0,-2.89,0.0
1.0,0.0,13270507.0,1048.0,-2501.0,-341.0,0.0,14.85,0.0,0.0,-2.89,0.0
1.0,0.0,13283203.0,1040.0,-2463.0,-367.0,0.0,14.85,0.0,0.0,-2.89,0.0
1.0,0.0,13295898.0,1047.0,-2454.0,-369.0,0.0,14.85,0.0,0.0,-2.89,0.0
1.0,0.0,13308593.0,1050.0,-2479.0,-377.0,0.0,14.85,0.0,0.0,-2.89,0.0
1.0,0.0,13321289.0,1024.0,-2464.0,-362.0,0.0,14.85,0.0,0.0,-2.89,0.0
1.0,0.0,13334960.0,1059.0,-2469.0,-339.0,0.0,14.85,0.0,0.0,-2.89,0.0
1.0,0.0,13346679.0,1040.0,-2484.0,-384.0,0.0,14.85,0.0,0.0,-2.89,0.0
1.0,0.0,13359375.0,1042.0,-2495.0,-332.0,0.0,14.85,0.0,0.0,-2.89,0.0
1.0,0.0,13372070.0,1051.0,-2486.0,-397.0,0.0,14.85,0.0,0.0,-2.89,0.0
1.0,0.0,13384765.0,1034.0,-2474.0,-364.0,0.0,14.85,0.0,0.0,-2.89,0.0
1.0,0.0,13397460.0,1053.0,-2476.0,-333.0,0.0,14.85,0.0,0.0,-2.89,0.0
1.0,0.0,13410156.0,1057.0,-2478.0,-304.0,0.0,14.85,0.0,0.0,-2.89,0.0
1.0,0.0,13422851.0,1063.0,-2448.0,-359.0,0.0,14.85,0.0,0.0,-2.89,0.0
1.0,0.0,13435546.0,1051.0,-2460.0,-323.0,0.0,14.85,0.0,0.0,-2.89,0.0
1.0,0.0,13448242.0,1017.0,-2442.0,-335.0,0.0,14.85,0.0,0.0,-2.89,0.0
1.0,0.0,13460937.0,1055.0,-2432.0,-393.0,0.0,14.85,0.0,0.0,-2.89,0.0
1.0,0.0,13473632.0,1038.0,-2461.0,-353.0,0.0,14.85,0.0,0.0,-2.89,0.0
1.0,0.0,13486328.0,1061.0,-2439.0,-361.0,0.0,14.85,0.0,0.0,-2.89,0.0
1.0,0.0,13499023.0,1051.0,-2453.0,-334.0,0.0,14.85,0.0,0.0,-2.89,0.0
1.0,0.0,13511718.0,1076.0,-2436.0,-343.0,0.0,14.85,0.0,0.0,-2.89,0.0
1.0,0.0,13524414.0,1060.0,-2456.0,-328.0,0.0,14.85,0.0,0.0,-2.89,0.0
1.0,0.0,13537109.0,1065.0,-2468.0,-317.0,0.0,14.85,0.0,0.0,-2.89,0.0
1.0,0.0,13549804.0,1045.0,-2479.0,-335.0,0.0,14.85,0.0,0.0,-2.89,0.0
1.0,0.0,13562500.0,1056.0,-2482.0,-320.0,0.0,14.85,0.0,0.0,-2.89,0.0
1.0,0.0,13576171.0,1043.0,-2495.0,-337.0,0.0,14.85,0.0,0.0,-2.89,0.0
1.0,0.0,13587890.0,1039.0,-2480.0,-350.0,0.0,14.85,0.0,0.0,-2.89,0.0
1.0,0.0,13600585.0,1057.0,-2468.0,-362.0,0.0,14.85,0.0,0.0,-2.89,0.0
1.0,0.0,13613281.0,1030.0,-2452.0,-323.0,0.0,14.85,0.0,0.0,-2.89,0.0
1.0,0.0,13625976.0,1049.0,-2490.0,-340.0,0.0,14.85,0.0,0.0,-2.89,0.0
1.0,0.0,13638671.0,1060.0,-2455.0,-373.0,0.0,14.85,0.0,0.0,-2.89,0.0
1.0,0.0,13651367.0,1038.0,-2465.0,-356.0,0.0,14.85,0.0,0.0,-2.89,0.0
1.0,0.0,13664062.0,1052.0,-2485.0,-364.0,0.0,14.85,0.0,0.0,-2.89,0.0
1.0,0.0,13676757.0,1069.0,-2486.0,-357.0,0.0,14.85,0.0,0.0,-2.89,0.0
1.0,0.0,13689453.0,1057.0,-2481.0,-345.0,0.0,14.85,0.0,0.0,-2.89,0.0
1.0,0.0,13702148.0,1058.0,-2493.0,-361.0,0.0,14.85,0.0,0.0,-2.89,0.0
1.0,0.0,13714843.0,1051.0,-2485.0,-411.0,0.0,14.85,0.0,0.0,-2.89,0.0
1.0,0.0,13727539.0,1084.0,-2468.0,-371.0,0.0,14.85,0.0,0.0,-2.89,0.0
1.0,0.0,13740234.0,1050.0,-2505.0,-355.0,0.0,14.85,0.0,0.0,-2.89,0.0
1.0,0.0,13752929.0,1055.0,-2489.0,-359.0,0.0,14.85,0.0,0.0,-2.89,0.0
1.0,0.0,13765625.0,1088.0,-2473.0,-334.0,0.0,14.85,0.0,0.0,-2.89,0.0
1.0,0.0,13778320.0,1050.0,-2483.0,-402.0,0.0,14.85,0.0,0.0,-2.89,0.0
1.0,0.0,13791015.0,1080.0,-2495.0,-391.0,0.0,14.85,0.0,0.0,-2.89,0.0
1.0,0.0,13803710.0,1072.0,-2504.0,-354.0,0.0,14.85,0.0,0.0,-2.89,0.0
1.0,0.0,13816406.0,1094.0,-2467.0,-392.0,0.0,14.85,0.0,0.0,-2.89,0.0
1.0,0.0,13829101.0,1048.0,-2514.0,-392.0,0.0,14.85,0.0,0.0,-2.89,0.0
1.0,0.0,13841796.0,1057.0,-2486.0,-396.0,0.0,14.85,0.0,0.0,-2.89,0.0
1.0,0.0,13854492.0,1057.0,-2465.0,-382.0,0.0,14.85,0.0,0.0,-2.89,0.0
1.0,0.0,13867187.0,1056.0,-2497.0,-379.0,0.0,14.85,0.0,0.0,-2.89,0.0
1.0,0.0,13879882.0,1068.0,-2478.0,-410.0,0.0,14.85,0.0,0.0,-2.89,0.0
1.0,0.0,13892578.0,1057.0,-2476.0,-384.0,0.0,14.85,0.0,0.0,-2.89,0.0
1.0,0.0,13905273.0,1058.0,-2456.0,-409.0,0.0,14.85,0.0,0.0,-2.89,0.0
1.0,0.0,13917968.0,1058.0,-2481.0,-338.0,0.0,14.85,0.0,0.0,-2.89,0.0
1.0,0.0,13930664.0,1057.0,-2482.0,-374.0,0.0,14.85,0.0,0.0,-2.89,0.0
1.0,0.0,13943359.0,1044.0,-2494.0,-353.0,0.0,14.85,0.0,0.0,-2.89,0.0
1.0,0.0,13956054.0,1068.0,-2483.0,-348.0,0.0,14.85,0.0,0.0,-2.89,0.0
1.0,0.0,13968750.0,1056.0,-2485.0,-330.0,0.0,14.85,0.0,0.0,-2.89,0.0
1.0,0.0,13981445.0,1059.0,-2487.0,-331.0,0.0,14.85,0.0,0.0,-2.89,0.0
1.0,0.0,13994140.0,1042.0,-2486.0,-319.0,0.0,14.85,0.0,0.0,-2.89,0.0
1.0,0.0,14006835.0,1054.0,-2482.0,-356.0,0.0,14.85,0.0,0.0,-2.89,0.0
1.0,0.0,14019531.0,1041.0,-2490.0,-370.0,0.0,14.85,0.0,0.0,-2.89,0.0
1.0,0.0,14032226.0,1072.0,-2527.0,-371.0,0.0,14.85,0.0,0.0,-2.89,0.0
1.0,0.0,14044921.0,1057.0,-2543.0,-361.0,0.0,14.85,0.0,0.0,-2.89,0.0
1.0,0.0,14057617.0,1073.0,-2509.0,-381.0,0.0,14.85,0.0,0.0,-2.89,0.0
1.0,0.0,14070312.0,1037.0,-2507.0,-383.0,0.0,14.85,0.0,0.0,-2.89,0.0
1.0,0.0,14083007.0,1051.0,-2516.0,-402.0,0.0,14.85,0.0,0.0,-2.89,0.0
1.0,0.0,14095703.0,1021.0,-2473.0,-378.0,0.0,14.85,0.0,0.0,-2.89,0.0
1.0,0.0,14108398.0,1061.0,-2476.0,-356.0,0.0,14.85,0.0,0.0,-2.89,0.0
1.0,0.0,14121093.0,1054.0,-2482.0,-391.0,0.0,14.85,0.0,0.0,-2.89,0.0
1.0,0.0,14133789.0,1047.0,-2509.0,-389.0,0.0,14.85,0.0,0.0,-2.89,0.0
1.0,0.0,14146484.0,1079.0,-2472.0,-364.0,0.0,14.85,0.0,0.0,-2.89,0.0
1.0,0.0,14159179.0,1071.0,-2520.0,-400.0,0.0,14.85,0.0,0.0,-2.89,0.0
1.0,0.0,14171875.0,1049.0,-2501.0,-349.0,0.0,14.85,0.0,0.0,-2.89,0.0
1.0,0.0,14184570.0,1062.0,-2489.0,-376.0,0.0,14.85,0.0,0.0,-2.89,0.0
1.0,0.0,14197265.0,1036.0,-2508.0,-421.0,0.0,14.85,0.0,0.0,-2.89,0.0
1.0,0.0,14209960.0,1076.0,-2501.0,-360.0,0.0,14.85,0.0,0.0,-2.89,0.0
1.0,0.0,14222656.0,1038.0,-2495.0,-370.0,0.0,14.85,0.0,0.0,-2.89,0.0
1.0,0.0,14235351.0,1091.0,-2502.0,-411.0,0.0,14.85,0.0,0.0,-2.89,0.0
1.0,0.0,14248046.0,1056.0,-2506.0,-376.0,0.0,14.85,0.0,0.0,-2.89,0.0
1.0,0.0,14260742.0,1038.0,-2481.0,-376.0,0.0,14.85,0.0,0.0,-2.89,0.0
1.0,0.0,14273437.0,1028.0,-2482.0,-434.0,0.0,14.85,0.0,0.0,-2.89,0.0
1.0,0.0,14286132.0,1017.0,-2487.0,-389.0,0.0,14.85,0.0,0.0,-2.89,0.0
1.0,0.0,14298828.0,1043.0,-2482.0,-406.0,0.0,14.85,0.0,0.0,-2.89,0.0
1.0,0.0,14311523.0,1029.0,-2479.0,-427.0,0.0,14.85,0.0,0.0,-2.89,0.0
1.0,0.0,14325195.0,1031.0,-2485.0,-399.0,0.0,14.85,0.0,0.0,-2.89,0.0
1.0,0.0,14336914.0,1025.0,-2495.0,-417.0,0.0,14.85,0.0,0.0,-2.89,0.0
1.0,0.0,14349609.0,999.0,-2490.0,-365.0,0.0,14.85,0.0,0.0,-2.89,0.0
1.0,0.0,14362304.0,1039.0,-2507.0,-373.0,0.0,14.85,0.0,0.0,-2.89,0.0
1.0,0.0,14375000.0,1042.0,-2487.0,-445.0,0.0,14.85,0.0,0.0,-2.89,0.0
1.0,0.0,14387695.0,1032.0,-2511.0,-413.0,0.0,14.85,0.0,0.0,-2.89,0.0
1.0,0.0,14400390.0,1035.0,-2514.0,-423.0,0.0,14.85,0.0,0.0,-2.89,0.0
1.0,0.0,14413085.0,1025.0,-2512.0,-413.0,0.0,14.85,0.0,0.0,-2.89,0.0
1.0,0.0,14425781.0,1026.0,-2509.0,-364.0,0.0,14.85,0.0,0.0,-2.89,0.0
1.0,0.0,14438476.0,1015.0,-2498.0,-362.0,0.0,14.85,0.0,0.0,-2.89,0.0
1.0,0.0,14451171.0,992.0,-2490.0,-316.0,0.0,14.85,0.0,0.0,-2.89,0.0
1.0,0.0,14463867.0,1016.0,-2521.0,-336.0,0.0,14.85,0.0,0.0,-2.89,0.0
1.0,0.0,14476562.0,1016.0,-2497.0,-309.0,0.0,14.85,0.0,0.0,-2.89,0.0
1.0,0.0,14489257.0,1032.0,-2536.0,-303.0,0.0,14.85,0.0,0.0,-2.89,0.0
1.0,0.0,14501953.0,1053.0,-2527.0,-356.0,0.0,14.85,0.0,0.0,-2.89,0.0
1.0,0.0,14514648.0,1031.0,-2499.0,-383.0,0.0,14.85,0.0,0.0,-2.89,0.0
1.0,0.0,14527343.0,1036.0,-2511.0,-338.0,0.0,14.85,0.0,0.0,-2.89,0.0
1.0,0.0,14540039.0,1037.0,-2485.0,-336.0,0.0,14.85,0.0,0.0,-2.89,0.0
1.0,0.0,14552734.0,1064.0,-2520.0,-354.0,0.0,14.85,0.0,0.0,-2.89,0.0
1.0,0.0,14565429.0,1043.0,-2506.0,-340.0,0.0,14.85,0.0,0.0,-2.89,0.0
1.0,0.0,14578125.0,1044.0,-2534.0,-381.0,0.0,14.85,0.0,0.0,-2.89,0.0
1.0,0.0,14590820.0,1021.0,-2514.0,-399.0,0.0,14.85,0.0,0.0,-2.89,0.0
1.0,0.0,14603515.0,1076.0,-2527.0,-368.0,0.0,14.85,0.0,0.0,-2.89,0.0
1.0,0.0,14616210.0,1062.0,-2519.0,-370.0,0.0,14.85,0.0,0.0,-2.89,0.0
1.0,0.0,14628906.0,1061.0,-2469.0,-386.0,0.0,14.85,0.0,0.0,-2.89,0.0
1.0,0.0,14641601.0,1055.0,-2497.0,-380.0,0.0,14.85,0.0,0.0,-2.89,0.0
1.0,0.0,14654296.0,1070.0,-2522.0,-398.0,0.0,14.85,0.0,0.0,-2.89,0.0
1.0,0.0,14666992.0,1048.0,-2489.0,-374.0,0.0,14.85,0.0,0.0,-2.89,0.0
1.0,0.0,14679687.0,1055.0,-2498.0,-356.0,0.0,14.85,0.0,0.0,-2.89,0.0
1.0,0.0,14692382.0,1073.0,-2487.0,-311.0,0.0,14.85,0.0,0.0,-2.89,0.0
1.0,0.0,14705078.0,1061.0,-2516.0,-373.0,0.0,14.85,0.0,0.0,-2.89,0.0
1.0,0.0,14717773.0,1067.0,-2492.0,-379.0,0.0,14.85,0.0,0.0,-2.89,0.0
1.0,0.0,14730468.0,1025.0,-2511.0,-372.0,0.0,14.85,0.0,0.0,-2.89,0.0
1.0,0.0,14743164.0,1059.0,-2506.0,-393.0,0.0,14.85,0.0,0.0,-2.89,0.0
1.0,0.0,14755859.0,1045.0,-2488.0,-388.0,0.0,14.85,0.0,0.0,-2.89,0.0
1.0,0.0,14768554.0,1049.0,-2498.0,-386.0,0.0,14.85,0.0,0.0,-2.89,0.0
1.0,0.0,14781250.0,1026.0,-2517.0,-381.0,0.0,14.85,0.0,0.0,-2.89,0.0
1.0,0.0,14793945.0,1017.0,-2495.0,-403.0,0.0,14.85,0.0,0.0,-2.89,0.0
1.0,0.0,14806640.0,1039.0,-2508.0,-384.0,0.0,14.85,0.0,0.0,-2.89,0.0
1.0,0.0,14819335.0,1059.0,-2486.0,-389.0,0.0,14.85,0.0,0.0,-2.89,0.0
1.0,0.0,14832031.0,1049.0,-2496.0,-397.0,0.0,14.85,0.0,0.0,-2.89,0.0
1.0,0.0,14844726.0,1044.0,-2511.0,-412.0,0.0,14.85,0.0,0.0,-2.89,0.0
1.0,0.0,14857421.0,1024.0,-2476.0,-390.0,0.0,14.85,0.0,0.0,-2.89,0.0
1.0,0.0,14870117.0,1056.0,-2496.0,-420.0,0.0,14.85,0.0,0.0,-2.89,0.0
1.0,0.0,14882812.0,1041.0,-2510.0,-390.0,0.0,14.85,0.0,0.0,-2.89,0.0
1.0,0.0,14895507.0,1050.0,-2536.0,-393.0,0.0,14.85,0.0,0.0,-2.89,0.0
1.0,0.0,14908203.0,1033.0,-2503.0,-419.0,0.0,14.85,0.0,0.0,-2.89,0.0
1.0,0.0,14920898.0,1057.0,-2517.0,-388.0,0.0,14.85,0.0,0.0,-2.89,0.0
1.0,0.0,14933593.0,1060.0,-2486.0,-358.0,0.0,14.85,0.0,0.0,-2.89,0.0
1.0,0.0,14946289.0,1041.0,-2507.0,-370.0,0.0,14.85,0.0,0.0,-2.89,0.0
1.0,0.0,14958984.0,1020.0,-2502.0,-390.0,0.0,14.85,0.0,0.0,-2.89,0.0
1.0,0.0,14971679.0,1063.0,-2499.0,-403.0,0.0,14.85,0.0,0.0,-2.89,0.0
1.0,0.0,14984375.0,1028.0,-2502.0,-424.0,0.0,14.85,0.0,0.0,-2.89,0.0
1.0,0.0,14997070.0,1061.0,-2471.0,-366.0,0.0,14.85,0.0,0.0,-2.89,0.0
1.0,0.0,15009765.0,1053.0,-2478.0,-373.0,0.0,14.85,0.0,0.0,-2.89,0.0
1.0,0.0,15022460.0,1025.0,-2488.0,-368.0,0.0,14.85,0.0,0.0,-2.89,0.0
1.0,0.0,15035156.0,1027.0,-2507.0,-337.0,0.0,14.85,0.0,0.0,-2.89,0.0
1.0,0.0,15047851.0,1032.0,-2539.0,-356.0,0.0,14.85,0.0,0.0,-2.89,0.0
1.0,0.0,15060546.0,1060.0,-2512.0,-377.0,0.0,14.85,0.0,0.0,-2.89,0.0
1.0,0.0,15074218.0,1050.0,-2502.0,-344.0,0.0,14.85,0.0,0.0,-2.89,0.0
1.0,0.0,15085937.0,1013.0,-2515.0,-332.0,0.0,14.85,0.0,0.0,-2.89,0.0
1.0,0.0,15098632.0,1020.0,-2472.0,-385.0,0.0,14.85,0.0,0.0,-2.89,0.0
1.0,0.0,15111328.0,1039.0,-2491.0,-370.0,0.0,14.85,0.0,0.0,-2.89,0.0
1.0,0.0,15124023.0,1039.0,-2487.0,-354.0,0.0,14.85,0.0,0.0,-2.89,0.0
1.0,0.0,15136718.0,1031.0,-2479.0,-337.0,0.0,14.85,0.0,0.0,-2.89,0.0
1.0,0.0,15149414.0,1053.0,-2497.0,-340.0,0.0,14.85,0.0,0.0,-2.89,0.0
1.0,0.0,15162109.0,1050.0,-2499.0,-305.0,0.0,14.85,0.0,0.0,-2.89,0.0
1.0,0.0,15174804.0,1032.0,-2481.0,-302.0,0.0,14.85,0.0,0.0,-2.89,0.0
1.0,0.0,15187500.0,1020.0,-2487.0,-350.0,0.0,14.85,0.0,0.0,-2.89,0.0
1.0,0.0,15200195.0,1034.0,-2480.0,-324.0,0.0,14.85,0.0,0.0,-2.89,0.0
1.0,0.0,15212890.0,1026.0,-2463.0,-344.0,0.0,14.85,0.0,0.0,-2.89,0.0
1.0,0.0,15225585.0,1038.0,-2467.0,-393.0,0.0,14.85,0.0,0.0,-2.89,0.0
1.0,0.0,15238281.0,1016.0,-2490.0,-341.0,0.0,14.85,0.0,0.0,-2.89,0.0
1.0,0.0,15250976.0,1046.0,-2482.0,-351.0,0.0,14.85,0.0,0.0,-2.89,0.0
1.0,0.0,15263671.0,1044.0,-2481.0,-345.0,0.0,14.85,0.0,0.0,-2.89,0.0
1.0,0.0,15276367.0,1078.0,-2506.0,-381.0,0.0,14.85,0.0,0.0,-2.89,0.0
1.0,0.0,15289062.0,1079.0,-2489.0,-373.0,0.0,14.85,0.0,0.0,-2.89,0.0
1.0,0.0,15301757.0,1033.0,-2481.0,-390.0,0.0,14.85,0.0,0.0,-2.89,0.0
1.0,0.0,15314453.0,1036.0,-2479.0,-384.0,0.0,14.85,0.0,0.0,-2.89,0.0
1.0,0.0,15327148.0,994.0,-2490.0,-400.0,0.0,14.85,0.0,0.0,-2.89,0.0
1.0,0.0,15339843.0,1044.0,-2510.0,-393.0,0.0,14.85,0.0,0.0,-2.89,0.0
1.0,0.0,15352539.0,1052.0,-2503.0,-381.0,0.0,14.85,0.0,0.0,-2.89,0.0
1.0,0.0,15365234.0,1027.0,-2496.0,-397.0,0.0,14.85,0.0,0.0,-2.89,0.0
1.0,0.0,15377929.0,1027.0,-2497.0,-359.0,0.0,14.85,0.0,0.0,-2.89,0.0
1.0,0.0,15390625.0,1029.0,-2474.0,-331.0,0.0,14.85,0.0,0.0,-2.89,0.0
1.0,0.0,15403320.0,1037.0,-2488.0,-352.0,0.0,14.85,0.0,0.0,-2.89,0.0
1.0,0.0,15416015.0,1030.0,-2482.0,-357.0,0.0,14.85,0.0,0.0,-2.89,0.0
1.0,0.0,15428710.0,1053.0,-2497.0,-419.0,0.0,14.85,0.0,0.0,-2.89,0.0
1.0,0.0,15441406.0,1020.0,-2509.0,-381.0,0.0,14.85,0.0,0.0,-2.89,0.0
1.0,0.0,15454101.0,1029.0,-2490.0,-342.0,0.0,14.85,0.0,0.0,-2.89,0.0
1.0,0.0,15466796.0,1050.0,-2497.0,-327.0,0.0,14.85,0.0,0.0,-2.89,0.0
1.0,0.0,15479492.0,1029.0,-2482.0,-339.0,0.0,14.85,0.0,0.0,-2.89,0.0
1.0,0.0,15492187.0,1028.0,-2512.0,-290.0,0.0,14.85,0.0,0.0,-2.89,0.0
1.0,0.0,15504882.0,1040.0,-2511.0,-341.0,0.0,14.85,0.0,0.0,-2.89,0.0
1.0,0.0,15517578.0,1034.0,-2499.0,-391.0,0.0,14.85,0.0,0.0,-2.89,0.0
1.0,0.0,15530273.0,1053.0,-2512.0,-361.0,0.0,14.85,0.0,0.0,-2.89,0.0
1.0,0.0,15542968.0,1054.0,-2517.0,-315.0,0.0,14.85,0.0,0.0,-2.89,0.0
1.0,0.0,15555664.0,1025.0,-2522.0,-376.0,0.0,14.85,0.0,0.0,-2.89,0.0
1.0,0.0,15568359.0,1039.0,-2487.0,-372.0,0.0,14.85,0.0,0.0,-2.89,0.0
1.0,0.0,15581054.0,1063.0,-2509.0,-323.0,0.0,14.85,0.0,0.0,-2.89,0.0
1.0,0.0,15593750.0,1033.0,-2485.0,-345.0,0.0,14.85,0.0,0.0,-2.89,0.0
1.0,0.0,15606445.0,1035.0,-2502.0,-367.0,0.0,14.85,0.0,0.0,-2.89,0.0
1.0,0.0,15619140.0,1049.0,-2518.0,-314.0,0.0,14.85,0.0,0.0,-2.89,0.0
1.0,0.0,15631835.0,1020.0,-2524.0,-353.0,0.0,14.85,0.0,0.0,-2.89,0.0
1.0,0.0,15644531.0,1028.0,-2496.0,-374.0,0.0,14.85,0.0,0.0,-2.89,0.0
1.0,0.0,15657226.0,1044.0,-2518.0,-350.0,0.0,14.85,0.0,0.0,-2.89,0.0
1.0,0.0,15669921.0,1090.0,-2527.0,-371.0,0.0,14.85,0.0,0.0,-2.89,0.0
1.0,0.0,15682617.0,1078.0,-2531.0,-356.0,0.0,14.85,0.0,0.0,-2.89,0.0
1.0,0.0,15695312.0,1033.0,-2529.0,-335.0,0.0,14.85,0.0,0.0,-2.89,0.0
1.0,0.0,15708007.0,1086.0,-2529.0,-363.0,0.0,14.85,0.0,0.0,-2.89,0.0
1.0,0.0,15720703.0,1073.0,-2503.0,-380.0,0.0,14.85,0.0,0.0,-2.89,0.0
1.0,0.0,15733398.0,1068.0,-2520.0,-334.0,0.0,14.85,0.0,0.0,-2.89,0.0
1.0,0.0,15746093.0,1062.0,-2501.0,-340.0,0.0,14.85,0.0,0.0,-2.89,0.0
1.0,0.0,15758789.0,1048.0,-2497.0,-355.0,0.0,14.85,0.0,0.0,-2.89,0.0
1.0,0.0,15771484.0,1038.0,-2534.0,-365.0,0.0,14.85,0.0,0.0,-2.89,0.0
1.0,0.0,15784179.0,1041.0,-2518.0,-366.0,0.0,14.85,0.0,0.0,-2.89,0.0
1.0,0.0,15796875.0,1056.0,-2517.0,-338.0,0.0,14.85,0.0,0.0,-2.89,0.0
1.0,0.0,15809570.0,1047.0,-2500.0,-347.0,0.0,14.85,0.0,0.0,-2.89,0.0
1.0,0.0,15822265.0,1051.0,-2525.0,-386.0,0.0,14.85,0.0,0.0,-2.89,0.0
1.0,0.0,15834960.0,1054.0,-2522.0,-342.0,0.0,14.85,0.0,0.0,-2.89,0.0
1.0,0.0,15847656.0,1060.0,-2504.0,-387.0,0.0,14.85,0.0,0.0,-2.89,0.0
1.0,0.0,15860351.0,1070.0,-2518.0,-325.0,0.0,14.85,0.0,0.0,-2.89,0.0
1.0,0.0,15873046.0,1075.0,-2488.0,-334.0,0.0,14.85,0.0,0.0,-2.89,0.0
1.0,0.0,15885742.0,1074.0,-2512.0,-382.0,0.0,14.85,0.0,0.0,-2.89,0.0
1.0,0.0,15898437.0,1064.0,-2512.0,-389.0,0.0,14.85,0.0,0.0,-2.89,0.0
1.0,0.0,15911132.0,1065.0,-2487.0,-383.0,0.0,14.85,0.0,0.0,-2.89,0.0
1.0,0.0,15923828.0,1065.0,-2502.0,-346.0,0.0,14.85,0.0,0.0,-2.89,0.0
1.0,0.0,15936523.0,1042.0,-2506.0,-337.0,0.0,14.85,0.0,0.0,-2.89,0.0
1.0,0.0,15949218.0,1074.0,-2480.0,-340.0,0.0,14.85,0.0,0.0,-2.89,0.0
1.0,0.0,15961914.0,1046.0,-2503.0,-395.0,0.0,14.85,0.0,0.0,-2.89,0.0
1.0,0.0,15974609.0,1046.0,-2484.0,-357.0,0.0,14.85,0.0,0.0,-2.89,0.0
1.0,0.0,15987304.0,1039.0,-2486.0,-367.0,0.0,14.85,0.0,0.0,-2.89,0.0
1.0,0.0,16000000.0,1068.0,-2498.0,-354.0,0.0,14.85,0.0,0.0,-2.89,0.0
1.0,0.0,16012695.0,1053.0,-2478.0,-394.0,0.0,14.85,0.0,0.0,-2.89,0.0
1.0,0.0,16025390.0,1064.0,-2475.0,-353.0,0.0,14.85,0.0,0.0,-2.89,0.0
1.0,0.0,16038085.0,1079.0,-2483.0,-351.0,0.0,14.85,0.0,0.0,-2.89,0.0
1.0,0.0,16050781.0,1072.0,-2470.0,-349.0,0.0,14.85,0.0,0.0,-2.89,0.0
1.0,0.0,16063476.0,1073.0,-2462.0,-286.0,0.0,14.85,0.0,0.0,-2.89,0.0
1.0,0.0,16076171.0,1059.0,-2470.0,-333.0,0.0,14.85,0.0,0.0,-2.89,0.0
1.0,0.0,16088867.0,1055.0,-2476.0,-344.0,0.0,14.85,0.0,0.0,-2.89,0.0
1.0,0.0,16101562.0,1060.0,-2460.0,-331.0,0.0,14.85,0.0,0.0,-2.89,0.0
1.0,0.0,16114257.0,1058.0,-2495.0,-338.0,0.0,14.85,0.0,0.0,-2.89,0.0
1.0,0.0,16126953.0,1035.0,-2483.0,-375.0,0.0,14.85,0.0,0.0,-2.89,0.0
1.0,0.0,16139648.0,1061.0,-2487.0,-364.0,0.0,14.85,0.0,0.0,-2.89,0.0
1.0,0.0,16153320.0,1046.0,-2488.0,-328.0,0.0,14.85,0.0,0.0,-2.89,0.0
1.0,0.0,16165039.0,1053.0,-2452.0,-333.0,0.0,14.85,0.0,0.0,-2.89,0.0
1.0,0.0,16177734.0,1055.0,-2467.0,-333.0,0.0,14.85,0.0,0.0,-2.89,0.0
1.0,0.0,16190429.0,1073.0,-2466.0,-341.0,0.0,14.85,0.0,0.0,-2.89,0.0
1.0,0.0,16203125.0,1069.0,-2502.0,-344.0,0.0,14.85,0.0,0.0,-2.89,0.0
1.0,0.0,16215820.0,1043.0,-2503.0,-362.0,0.0,14.85,0.0,0.0,-2.89,0.0
1.0,0.0,16228515.0,1065.0,-2474.0,-341.0,0.0,14.85,0.0,0.0,-2.89,0.0
2.0,1.0,31096679.0,654.0,-3156.0,-337.0,0.0,14.85,0.0,0.0,-2.89,0.0
2.0,1.0,31109375.0,634.0,-3150.0,-285.0,0.0,14.85,0.0,0.0,-2.89,0.0
2.0,1.0,31122070.0,651.0,-3140.0,-293.0,0.0,14.85,0.0,0.0,-2.89,0.0
2.0,1.0,31134765.0,648.0,-3116.0,-276.0,0.0,14.85,0.0,0.0,-2.89,0.0
2.0,1.0,31147460.0,665.0,-3109.0,-319.0,0.0,14.85,0.0,0.0,-2.89,0.0
2.0,1.0,31160156.0,653.0,-3135.0,-300.0,0.0,14.85,0.0,0.0,-2.89,0.0
2.0,1.0,31172851.0,642.0,-3101.0,-307.0,0.0,14.85,0.0,0.0,-2.89,0.0
2.0,1.0,31185546.0,612.0,-3120.0,-287.0,0.0,14.85,0.0,0.0,-2.89,0.0
2.0,1.0,31198242.0,651.0,-3138.0,-304.0,0.0,14.85,0.0,0.0,-2.89,0.0
2.0,1.0,31210937.0,661.0,-3156.0,-302.0,0.0,14.85,0.0,0.0,-2.89,0.0
2.0,1.0,31223632.0,647.0,-3127.0,-315.0,0.0,14.85,0.0,0.0,-2.89,0.0
2.0,1.0,31236328.0,641.0,-3149.0,-315.0,0.0,14.85,0.0,0.0,-2.89,0.0
2.0,1.0,31249023.0,649.0,-3129.0,-267.0,0.0,14.85,0.0,0.0,-2.89,0.0
2.0,1.0,31261718.0,650.0,-3117.0,-288.0,0.0,14.85,0.0,0.0,-2.89,0.0
2.0,1.0,31275390.0,659.0,-3155.0,-329.0,0.0,14.85,0.0,0.0,-2.89,0.0
2.0,1.0,31287109.0,675.0,-3154.0,-264.0,0.0,14.85,0.0,0.0,-2.89,0.0
2.0,1.0,31299804.0,629.0,-3127.0,-291.0,0.0,14.85,0.0,0.0,-2.89,0.0
2.0,1.0,31312500.0,607.0,-3140.0,-279.0,0.0,14.85,0.0,0.0,-2.89,0.0
2.0,1.0,31325195.0,659.0,-3112.0,-255.0,0.0,14.85,0.0,0.0,-2.89,0.0
2.0,1.0,31337890.0,657.0,-3156.0,-250.0,0.0,14.85,0.0,0.0,-2.89,0.0
2.0,1.0,31350585.0,674.0,-3160.0,-239.0,0.0,14.85,0.0,0.0,-2.89,0.0
2.0,1.0,31363281.0,675.0,-3154.0,-283.0,0.0,14.85,0.0,0.0,-2.89,0.0
2.0,1.0,31375976.0,638.0,-3146.0,-276.0,0.0,14.85,0.0,0.0,-2.89,0.0
2.0,1.0,31388671.0,650.0,-3140.0,-231.0,0.0,14.85,0.0,0.0,-2.89,0.0
2.0,1.0,31401367.0,617.0,-3150.0,-261.0,0.0,14.85,0.0,0.0,-2.89,0.0
2.0,1.0,31414062.0,615.0,-3155.0,-266.0,0.0,14.85,0.0,0.0,-2.89,0.0
2.0,1.0,31426757.0,628.0,-3141.0,-264.0,0.0,14.85,0.0,0.0,-2.89,0.0
2.0,1.0,31439453.0,650.0,-3124.0,-266.0,0.0,14.85,0.0,0.0,-2.89,0.0
2.0,1.0,31452148.0,675.0,-3163.0,-265.0,0.0,14.85,0.0,0.0,-2.89,0.0
2.0,1.0,31464843.0,672.0,-3162.0,-270.0,0.0,14.85,0.0,0.0,-2.89,0.0
2.0,1.0,31477539.0,697.0,-3156.0,-237.0,0.0,14.85,0.0,0.0,-2.89,0.0
2.0,1.0,31490234.0,674.0,-3148.0,-232.0,0.0,14.85,0.0,0.0,-2.89,0.0
2.0,1.0,31502929.0,683.0,-3150.0,-259.0,0.0,14.85,0.0,0.0,-2.89,0.0
2.0,1.0,31515625.0,647.0,-3174.0,-276.0,0.0,14.85,0.0,0.0,-2.89,0.0
2.0,1.0,31528320.0,636.0,-3150.0,-248.0,0.0,14.85,0.0,0.0,-2.89,0.0
2.0,1.0,31541015.0,614.0,-3145.0,-261.0,0.0,14.85,0.0,0.0,-2.89,0.0
2.0,1.0,31553710.0,657.0,-3175.0,-256.0,0.0,14.85,0.0,0.0,-2.89,0.0
2.0,1.0,31566406.0,656.0,-3167.0,-295.0,0.0,14.85,0.0,0.0,-2.89,0.0
2.0,1.0,31579101.0,648.0,-3148.0,-206.0,0.0,14.85,0.0,0.0,-2.89,0.0
2.0,1.0,31591796.0,616.0,-3147.0,-240.0,0.0,14.85,0.0,0.0,-2.89,0.0
2.0,1.0,31604492.0,633.0,-3136.0,-266.0,0.0,14.85,0.0,0.0,-2.89,0.0
2.0,1.0,31617187.0,629.0,-3137.0,-260.0,0.0,14.85,0.0,0.0,-2.89,0.0
2.0,1.0,31629882.0,634.0,-3155.0,-253.0,0.0,14.85,0.0,0.0,-2.89,0.0
2.0,1.0,31642578.0,647.0,-3138.0,-271.0,0.0,14.85,0.0,0.0,-2.89,0.0
2.0,1.0,31655273.0,649.0,-3170.0,-277.0,0.0,14.85,0.0,0.0,-2.89,0.0
2.0,1.0,31667968.0,627.0,-3155.0,-258.0,0.0,14.85,0.0,0.0,-2.89,0.0
2.0,1.0,31680664.0,670.0,-3175.0,-254.0,0.0,14.85,0.0,0.0,-2.89,0.0
2.0,1.0,31693359.0,681.0,-3145.0,-295.0,0.0,14.85,0.0,0.0,-2.89,0.0
2.0,1.0,31706054.0,666.0,-3150.0,-261.0,0.0,14.85,0.0,0.0,-2.89,0.0
2.0,1.0,31718750.0,666.0,-3152.0,-308.0,0.0,14.85,0.0,0.0,-2.89,0.0
2.0,1.0,31731445.0,715.0,-3138.0,-282.0,0.0,14.85,0.0,0.0,-2.89,0.0
2.0,1.0,31744140.0,666.0,-3152.0,-267.0,0.0,14.85,0.0,0.0,-2.89,0.0
2.0,1.0,31756835.0,691.0,-3141.0,-284.0,0.0,14.85,0.0,0.0,-2.89,0.0
2.0,1.0,31769531.0,646.0,-3163.0,-303.0,0.0,14.85,0.0,0.0,-2.89,0.0
2.0,1.0,31782226.0,649.0,-3157.0,-319.0,0.0,14.85,0.0,0.0,-2.89,0.0
2.0,1.0,31794921.0,650.0,-3158.0,-261.0,0.0,14.85,0.0,0.0,-2.89,0.0
2.0,1.0,31807617.0,657.0,-3170.0,-300.0,0.0,14.85,0.0,0.0,-2.89,0.0
2.0,1.0,31820312.0,650.0,-3140.0,-286.0,0.0,14.85,0.0,0.0,-2.89,0.0
2.0,1.0,31833007.0,653.0,-3130.0,-276.0,0.0,14.85,0.0,0.0,-2.89,0.0
2.0,1.0,31845703.0,653.0,-3124.0,-295.0,0.0,14.85,0.0,0.0,-2.89,0.0
2.0,1.0,31858398.0,629.0,-3145.0,-296.0,0.0,14.85,0.0,0.0,-2.89,0.0
2.0,1.0,31871093.0,623.0,-3128.0,-283.0,0.0,14.85,0.0,0.0,-2.89,0.0
2.0,1.0,31883789.0,611.0,-3137.0,-254.0,0.0,14.85,0.0,0.0,-2.89,0.0
2.0,1.0,31896484.0,630.0,-3153.0,-303.0,0.0,14.85,0.0,0.0,-2.89,0.0
2.0,1.0,31909179.0,656.0,-3139.0,-325.0,0.0,14.85,0.0,0.0,-2.89,0.0
2.0,1.0,31921875.0,637.0,-3146.0,-324.0,0.0,14.85,0.0,0.0,-2.89,0.0
2.0,1.0,31935546.0,651.0,-3170.0,-314.0,0.0,14.85,0.0,0.0,-2.89,0.0
2.0,1.0,31947265.0,651.0,-3147.0,-332.0,0.0,14.85,0.0,0.0,-2.89,0.0
2.0,1.0,31959960.0,661.0,-3130.0,-286.0,0.0,14.85,0.0,0.0,-2.89,0.0
2.0,1.0,31972656.0,649.0,-3166.0,-271.0,0.0,14.85,0.0,0.0,-2.89,0.0
2.0,1.0,31985351.0,657.0,-3161.0,-289.0,0.0,14.85,0.0,0.0,-2.89,0.0
2.0,1.0,31998046.0,632.0,-3162.0,-269.0,0.0,14.85,0.0,0.0,-2.89,0.0
2.0,1.0,32010742.0,652.0,-3155.0,-244.0,0.0,14.85,0.0,0.0,-2.89,0.0
2.0,1.0,32024414.0,645.0,-3160.0,-295.0,0.0,14.85,0.0,0.0,-2.89,0.0
2.0,1.0,32036132.0,621.0,-3148.0,-264.0,0.0,14.85,0.0,0.0,-2.89,0.0
2.0,1.0,32048828.0,650.0,-3147.0,-280.0,0.0,14.85,0.0,0.0,-2.89,0.0
2.0,1.0,32061523.0,662.0,-3187.0,-290.0,0.0,14.85,0.0,0.0,-2.89,0.0
2.0,1.0,32074218.0,660.0,-3164.0,-275.0,0.0,14.85,0.0,0.0,-2.89,0.0
2.0,1.0,32086914.0,652.0,-3181.0,-277.0,0.0,14.85,0.0,0.0,-2.89,0.0
2.0,1.0,32099609.0,629.0,-3148.0,-290.0,0.0,14.85,0.0,0.0,-2.89,0.0
2.0,1.0,32112304.0,641.0,-3163.0,-262.0,0.0,14.85,0.0,0.0,-2.89,0.0
2.0,1.0,32125000.0,657.0,-3132.0,-284.0,0.0,14.85,0.0,0.0,-2.89,0.0
2.0,1.0,32137695.0,663.0,-3182.0,-274.0,0.0,14.85,0.0,0.0,-2.89,0.0
2.0,1.0,32150390.0,661.0,-3167.0,-249.0,0.0,14.85,0.0,0.0,-2.89,0.0
2.0,1.0,32163085.0,653.0,-3149.0,-301.0,0.0,14.85,0.0,0.0,-2.89,0.0
2.0,1.0,32175781.0,666.0,-3145.0,-294.0,0.0,14.85,0.0,0.0,-2.89,0.0
2.0,1.0,32188476.0,656.0,-3159.0,-264.0,0.0,14.85,0.0,0.0,-2.89,0.0
2.0,1.0,32201171.0,691.0,-3160.0,-248.0,0.0,14.85,0.0,0.0,-2.89,0.0
2.0,1.0,32213867.0,642.0,-3145.0,-263.0,0.0,14.85,0.0,0.0,-2.89,0.0
2.0,1.0,32226562.0,685.0,-3160.0,-254.0,0.0,14.85,0.0,0.0,-2.89,0.0
2.0,1.0,32239257.0,656.0,-3141.0,-292.0,0.0,14.85,0.0,0.0,-2.89,0.0
2.0,1.0,32251953.0,675.0,-3161.0,-267.0,0.0,14.85,0.0,0.0,-2.89,0.0
2.0,1.0,32264648.0,676.0,-3136.0,-243.0,0.0,14.85,0.0,0.0,-2.89,0.0
2.0,1.0,32277343.0,688.0,-3144.0,-240.0,0.0,14.85,0.0,0.0,-2.89,0.0
2.0,1.0,32290039.0,652.0,-3134.0,-262.0,0.0,14.85,0.0,0.0,-2.89,0.0
2.0,1.0,32302734.0,654.0,-3171.0,-271.0,0.0,14.85,0.0,0.0,-2.89,0.0
2.0,1.0,32315429.0,668.0,-3143.0,-268.0,0.0,14.85,0.0,0.0,-2.89,0.0
2.0,1.0,32328125.0,672.0,-3140.0,-239.0,0.0,14.85,0.0,0.0,-2.89,0.0
2.0,1.0,32340820.0,639.0,-3147.0,-280.0,0.0,14.85,0.0,0.0,-2.89,0.0
2.0,1.0,32353515.0,666.0,-3170.0,-283.0,0.0,14.85,0.0,0.0,-2.89,0.0
2.0,1.0,32366210.0,644.0,-3138.0,-221.0,0.0,14.85,0.0,0.0,-2.89,0.0
2.0,1.0,32378906.0,674.0,-3157.0,-272.0,0.0,14.85,0.0,0.0,-2.89,0.0
2.0,1.0,32391601.0,651.0,-3156.0,-233.0,0.0,14.85,0.0,0.0,-2.89,0.0
2.0,1.0,32404296.0,667.0,-3149.0,-277.0,0.0,14.85,0.0,0.0,-2.89,0.0
2.0,1.0,32416992.0,662.0,-3164.0,-235.0,0.0,14.85,0.0,0.0,-2.89,0.0
2.0,1.0,32429687.0,674.0,-3144.0,-256.0,0.0,14.85,0.0,0.0,-2.89,0.0
2.0,1.0,32442382.0,706.0,-3151.0,-275.0,0.0,14.85,0.0,0.0,-2.89,0.0
2.0,1.0,32455078.0,657.0,-3153.0,-237.0,0.0,14.85,0.0,0.0,-2.89,0.0
2.0,1.0,32467773.0,638.0,-3162.0,-263.0,0.0,14.85,0.0,0.0,-2.89,0.0
2.0,1.0,32480468.0,651.0,-3151.0,-237.0,0.0,14.85,0.0,0.0,-2.89,0.0
2.0,1.0,32493164.0,681.0,-3156.0,-270.0,0.0,14.85,0.0,0.0,-2.89,0.0
2.0,1.0,32505859.0,664.0,-3160.0,-281.0,0.0,14.85,0.0,0.0,-2.89,0.0
2.0,1.0,32518554.0,663.0,-3147.0,-288.0,0.0,14.85,0.0,0.0,-2.89,0.0
2.0,1.0,32531250.0,687.0,-3141.0,-274.0,0.0,14.85,0.0,0.0,-2.89,0.0
2.0,1.0,32543945.0,678.0,-3174.0,-275.0,0.0,14.85,0.0,0.0,-2.89,0.0
2.0,1.0,32556640.0,684.0,-3138.0,-279.0,0.0,14.85,0.0,0.0,-2.89,0.0
2.0,1.0,32569335.0,674.0,-3143.0,-268.0,0.0,14.85,0.0,0.0,-2.89,0.0
2.0,1.0,32582031.0,648.0,-3136.0,-295.0,0.0,14.85,0.0,0.0,-2.89,0.0
2.0,1.0,32594726.0,655.0,-3162.0,-293.0,0.0,14.85,0.0,0.0,-2.89,0.0
2.0,1.0,32607421.0,674.0,-3154.0,-278.0,0.0,14.85,0.0,0.0,-2.89,0.0
2.0,1.0,32620117.0,684.0,-3154.0,-289.0,0.0,14.85,0.0,0.0,-2.89,0.0
2.0,1.0,32632812.0,655.0,-3150.0,-279.0,0.0,14.85,0.0,0.0,-2.89,0.0
2.0,1.0,32645507.0,687.0,-3165.0,-265.0,0.0,14.85,0.0,0.0,-2.89,0.0
2.0,1.0,32658203.0,653.0,-3153.0,-274.0,0.0,14.85,0.0,0.0,-2.89,0.0
2.0,1.0,32670898.0,668.0,-3159.0,-284.0,0.0,14.85,0.0,0.0,-2.89,0.0
2.0,1.0,32684570.0,685.0,-3167.0,-304.0,0.0,14.85,0.0,0.0,-2.89,0.0
2.0,1.0,32696289.0,632.0,-3179.0,-283.0,0.0,14.85,0.0,0.0,-2.89,0.0
2.0,1.0,32708984.0,647.0,-3188.0,-290.0,0.0,14.85,0.0,0.0,-2.89,0.0
2.0,1.0,32721679.0,653.0,-3162.0,-292.0,0.0,14.85,0.0,0.0,-2.89,0.0
2.0,1.0,32734375.0,632.0,-3158.0,-232.0,0.0,14.85,0.0,0.0,-2.89,0.0
2.0,1.0,32747070.0,661.0,-3153.0,-245.0,0.0,14.85,0.0,0.0,-2.89,0.0
2.0,1.0,32759765.0,636.0,-3174.0,-258.0,0.0,14.85,0.0,0.0,-2.89,0.0
2.0,1.0,32772460.0,654.0,-3154.0,-237.0,0.0,14.85,0.0,0.0,-2.89,0.0
2.0,1.0,32785156.0,637.0,-3165.0,-276.0,0.0,14.85,0.0,0.0,-2.89,0.0
2.0,1.0,32797851.0,627.0,-3136.0,-234.0,0.0,14.85,0.0,0.0,-2.89,0.0
2.0,1.0,32810546.0,607.0,-3124.0,-258.0,0.0,14.85,0.0,0.0,-2.89,0.0
2.0,1.0,32823242.0,641.0,-3167.0,-316.0,0.0,14.85,0.0,0.0,-2.89,0.0
2.0,1.0,32835937.0,636.0,-3148.0,-329.0,0.0,14.85,0.0,0.0,-2.89,0.0
2.0,1.0,32848632.0,624.0,-3153.0,-311.0,0.0,14.85,0.0,0.0,-2.89,0.0
2.0,1.0,32861328.0,676.0,-3146.0,-297.0,0.0,14.85,0.0,0.0,-2.89,0.0
2.0,1.0,32874023.0,670.0,-3178.0,-286.0,0.0,14.85,0.0,0.0,-2.89,0.0
2.0,1.0,32886718.0,651.0,-3178.0,-253.0,0.0,14.85,0.0,0.0,-2.89,0.0
2.0,1.0,32899414.0,641.0,-3144.0,-250.0,0.0,14.85,0.0,0.0,-2.89,0.0
2.0,1.0,32912109.0,680.0,-3097.0,-235.0,0.0,14.85,0.0,0.0,-2.89,0.0
2.0,1.0,32924804.0,650.0,-3025.0,-334.0,0.0,14.85,0.0,0.0,-2.89,0.0
2.0,1.0,32937500.0,623.0,-2909.0,-395.0,0.0,14.85,0.0,0.0,-2.89,0.0
2.0,1.0,32950195.0,627.0,-2947.0,-339.0,0.0,14.85,0.0,0.0,-2.89,0.0
2.0,1.0,32962890.0,749.0,-2990.0,-315.0,0.0,14.85,0.0,0.0,-2.89,0.0
2.0,1.0,32975585.0,894.0,-3100.0,-239.0,0.0,14.85,0.0,0.0,-2.89,0.0
2.0,1.0,32988281.0,1068.0,-3266.0,-243.0,0.0,14.85,0.0,0.0,-2.89,0.0
2.0,1.0,33000976.0,1421.0,-3571.0,-342.0,0.0,14.85,0.0,0.0,-2.89,0.0
2.0,1.0,33014648.0,1967.0,-4009.0,-747.0,0.0,14.85,0.0,0.0,-2.89,0.0
2.0,1.0,33026367.0,2733.0,-4342.0,-1460.0,0.0,14.85,0.0,0.0,-2.89,0.0
2.0,1.0,33039062.0,3618.0,-4412.0,-2525.0,0.0,14.85,0.0,0.0,-2.89,0.0
2.0,1.0,33051757.0,4329.0,-4091.0,-3805.0,0.0,14.85,0.0,0.0,-2.89,0.0
2.0,1.0,33064453.0,4635.0,-3373.0,-5027.0,0.0,14.85,0.0,0.0,-2.89,0.0
2.0,1.0,33077148.0,4456.0,-2446.0,-6093.0,0.0,14.85,0.0,0.0,-2.89,0.0
2.0,1.0,33089843.0,3907.0,-1510.0,-6841.0,0.0,14.85,0.0,0.0,-2.89,0.0
2.0,1.0,33102539.0,3161.0,-790.0,-7243.0,0.0,14.85,0.0,0.0,-2.89,0.0
2.0,1.0,33115234.0,2429.0,-411.0,-7283.0,0.0,14.85,0.0,0.0,-2.89,0.0
2.0,1.0,33127929.0,1940.0,-410.0,-7173.0,0.0,14.85,0.0,0.0,-2.89,0.0
2.0,1.0,33140625.0,1601.0,-730.0,-6839.0,0.0,14.85,0.0,0.0,-2.89,0.0
2.0,1.0,33153320.0,1332.0,-1269.0,-6275.0,0.0,14.85,0.0,0.0,-2.89,0.0
2.0,1.0,33166015.0,1026.0,-1717.0,-5564.0,0.0,14.85,0.0,0.0,-2.89,0.0
2.0,1.0,33178710.0,602.0,-1917.0,-4875.0,0.0,14.85,0.0,0.0,-2.89,0.0
2.0,1.0,33191406.0,130.0,-1965.0,-4320.0,0.0,14.85,0.0,0.0,-2.89,0.0
2.0,1.0,33204101.0,-289.0,-1950.0,-4096.0,0.0,14.85,0.0,0.0,-2.89,0.0
2.0,1.0,33216796.0,-565.0,-1907.0,-4127.0,0.0,14.85,0.0,0.0,-2.89,0.0
2.0,1.0,33229492.0,-650.0,-1728.0,-4527.0,0.0,14.85,0.0,0.0,-2.89,0.0
2.0,1.0,33242187.0,-714.0,-1393.0,-5029.0,0.0,14.85,0.0,0.0,-2.89,0.0
2.0,1.0,33254882.0,-830.0,-921.0,-5376.0,0.0,14.85,0.0,0.0,-2.89,0.0
2.0,1.0,33267578.0,-1029.0,-470.0,-5628.0,0.0,14.85,0.0,0.0,-2.89,0.0
2.0,1.0,33280273.0,-1263.0,-151.0,-5671.0,0.0,14.85,0.0,0.0,-2.89,0.0
2.0,1.0,33292968.0,-1463.0,-21.0,-5592.0,0.0,14.85,0.0,0.0,-2.89,0.0
2.0,1.0,33305664.0,-1566.0,-148.0,-5533.0,0.0,14.85,0.0,0.0,-2.89,0.0
2.0,1.0,33318359.0,-1562.0,-345.0,-5435.0,0.0,14.85,0.0,0.0,-2.89,0.0
2.0,1.0,33331054.0,-1375.0,-551.0,-5253.0,0.0,14.85,0.0,0.0,-2.89,0.0
2.0,1.0,33343750.0,-1156.0,-653.0,-5068.0,0.0,14.85,0.0,0.0,-2.89,0.0
2.0,1.0,33356445.0,-999.0,-666.0,-4876.0,0.0,14.85,0.0,0.0,-2.89,0.0
2.0,1.0,33369140.0,-980.0,-559.0,-4807.0,0.0,14.85,0.0,0.0,-2.89,0.0
2.0,1.0,33381835.0,-1034.0,-383.0,-4849.0,0.0,14.85,0.0,0.0,-2.89,0.0
2.0,1.0,33394531.0,-1146.0,-244.0,-4907.0,0.0,14.85,0.0,0.0,-2.89,0.0
2.0,1.0,33407226.0,-1412.0,-86.0,-4984.0,0.0,14.85,0.0,0.0,-2.89,0.0
2.0,1.0,33419921.0,-1612.0,42.0,-5103.0,0.0,14.85,0.0,0.0,-2.89,0.0
2.0,1.0,33432617.0,-2048.0,178.0,-5219.0,0.0,14.85,0.0,0.0,-2.89,0.0
2.0,1.0,33445312.0,-1917.0,253.0,-5307.0,0.0,14.85,0.0,0.0,-2.89,0.0
2.0,1.0,33458007.0,-1884.0,232.0,-5322.0,0.0,14.85,0.0,0.0,-2.89,0.0
2.0,1.0,33470703.0,-1763.0,65.0,-5343.0,0.0,14.85,0.0,0.0,-2.89,0.0
2.0,1.0,33483398.0,-1567.0,-130.0,-5231.0,0.0,14.85,0.0,0.0,-2.89,0.0
2.0,1.0,33496093.0,-1335.0,-248.0,-5118.0,0.0,14.85,0.0,0.0,-2.89,0.0
2.0,1.0,33508789.0,-1234.0,-234.0,-4959.0,0.0,14.85,0.0,0.0,-2.89,0.0
2.0,1.0,33521484.0,-1282.0,-128.0,-4899.0,0.0,14.85,0.0,0.0,-2.89,0.0
2.0,1.0,33534179.0,-1429.0,57.0,-4874.0,0.0,14.85,0.0,0.0,-2.89,0.0
2.0,1.0,33546875.0,-1620.0,484.0,-4910.0,0.0,14.85,0.0,0.0,-2.89,0.0
2.0,1.0,33559570.0,-1806.0,397.0,-4985.0,0.0,14.85,0.0,0.0,-2.89,0.0
2.0,1.0,33572265.0,-1943.0,606.0,-5064.0,0.0,14.85,0.0,0.0,-2.89,0.0
2.0,1.0,33584960.0,-1968.0,690.0,-5148.0,0.0,14.85,0.0,0.0,-2.89,0.0
2.0,1.0,33597656.0,-1881.0,698.0,-5320.0,0.0,14.85,0.0,0.0,-2.89,0.0
2.0,1.0,33610351.0,-1697.0,537.0,-5388.0,0.0,14.85,0.0,0.0,-2.89,0.0
2.0,1.0,33623046.0,-1419.0,270.0,-5363.0,0.0,14.85,0.0,0.0,-2.89,0.0
2.0,1.0,33635742.0,-1165.0,130.0,-5291.0,0.0,14.85,0.0,0.0,-2.89,0.0
2.0,1.0,33648437.0,-1144.0,139.0,-5242.0,0.0,14.85,0.0,0.0,-2.89,0.0
2.0,1.0,33661132.0,-1330.0,319.0,-5247.0,0.0,14.85,0.0,0.0,-2.89,0.0
2.0,1.0,33673828.0,-1560.0,498.0,-5235.0,0.0,14.85,0.0,0.0,-2.89,0.0
2.0,1.0,33686523.0,-1763.0,676.0,-5210.0,0.0,14.85,0.0,0.0,-2.89,0.0
2.0,1.0,33699218.0,-1916.0,866.0,-5255.0,0.0,14.85,0.0,0.0,-2.89,0.0
2.0,1.0,33711914.0,-1961.0,1008.0,-5305.0,0.0,14.85,0.0,0.0,-2.89,0.0
2.0,1.0,33724609.0,-1940.0,999.0,-5378.0,0.0,14.85,0.0,0.0,-2.89,0.0
2.0,1.0,33737304.0,-1820.0,821.0,-5504.0,0.0,14.85,0.0,0.0,-2.89,0.0
2.0,1.0,33750000.0,-1596.0,561.0,-5506.0,0.0,14.85,0.0,0.0,-2.89,0.0
2.0,1.0,33762695.0,-1313.0,221.0,-5487.0,0.0,14.85,0.0,0.0,-2.89,0.0
2.0,1.0,33775390.0,-1169.0,94.0,-5372.0,0.0,14.85,0.0,0.0,-2.89,0.0
2.0,1.0,33788085.0,-1224.0,131.0,-5267.0,0.0,14.85,0.0,0.0,-2.89,0.0
2.0,1.0,33800781.0,-1388.0,299.0,-5263.0,0.0,14.85,0.0,0.0,-2.89,0.0
2.0,1.0,33813476.0,-1542.0,454.0,-5157.0,0.0,14.85,0.0,0.0,-2.89,0.0
2.0,1.0,33826171.0,-1684.0,668.0,-5164.0,0.0,14.85,0.0,0.0,-2.89,0.0
2.0,1.0,33838867.0,-1759.0,794.0,-5149.0,0.0,14.85,0.0,0.0,-2.89,0.0
2.0,1.0,33851562.0,-1713.0,811.0,-5143.0,0.0,14.85,0.0,0.0,-2.89,0.0
2.0,1.0,33864257.0,-1627.0,640.0,-5144.0,0.0,14.85,0.0,0.0,-2.89,0.0
2.0,1.0,33876953.0,-1436.0,284.0,-5009.0,0.0,14.85,0.0,0.0,-2.89,0.0
2.0,1.0,33889648.0,-1221.0,-323.0,-4792.0,0.0,14.85,0.0,0.0,-2.89,0.0
2.0,1.0,33902343.0,-983.0,-769.0,-4454.0,0.0,14.85,0.0,0.0,-2.89,0.0
2.0,1.0,33915039.0,-954.0,-881.0,-4367.0,0.0,14.85,0.0,0.0,-2.89,0.0
2.0,1.0,33927734.0,-1036.0,-666.0,-4503.0,0.0,14.85,0.0,0.0,-2.89,0.0
2.0,1.0,33940429.0,-1245.0,-327.0,-4696.0,0.0,14.85,0.0,0.0,-2.89,0.0
2.0,1.0,33953125.0,-1486.0,94.0,-4925.0,0.0,14.85,0.0,0.0,-2.89,0.0
2.0,1.0,33965820.0,-1678.0,410.0,-5114.0,0.0,14.85,0.0,0.0,-2.89,0.0
2.0,1.0,33978515.0,-1847.0,724.0,-5224.0,0.0,14.85,0.0,0.0,-2.89,0.0
2.0,1.0,33991210.0,-1935.0,805.0,-5333.0,0.0,14.85,0.0,0.0,-2.89,0.0
2.0,1.0,34004882.0,-1895.0,777.0,-5419.0,0.0,14.85,0.0,0.0,-2.89,0.0
2.0,1.0,34016601.0,-1843.0,532.0,-5469.0,0.0,14.85,0.0,0.0,-2.89,0.0
2.0,1.0,34029296.0,-1674.0,170.0,-5378.0,0.0,14.85,0.0,0.0,-2.89,0.0
2.0,1.0,34041992.0,-1460.0,-283.0,-5241.0,0.0,14.85,0.0,0.0,-2.89,0.0
2.0,1.0,34054687.0,-1321.0,-532.0,-4983.0,0.0,14.85,0.0,0.0,-2.89,0.0
2.0,1.0,34067382.0,-1301.0,-565.0,-4834.0,0.0,14.85,0.0,0.0,-2.89,0.0
2.0,1.0,34080078.0,-1414.0,-460.0,-4812.0,0.0,14.85,0.0,0.0,-2.89,0.0
2.0,1.0,34092773.0,-1482.0,-374.0,-4818.0,0.0,14.85,0.0,0.0,-2.89,0.0
2.0,1.0,34105468.0,-1537.0,-273.0,-4903.0,0.0,14.85,0.0,0.0,-2.89,0.0
2.0,1.0,34118164.0,-1590.0,-226.0,-4931.0,0.0,14.85,0.0,0.0,-2.89,0.0
2.0,1.0,34130859.0,-1576.0,-261.0,-4927.0,0.0,14.85,0.0,0.0,-2.89,0.0
2.0,1.0,34143554.0,-1542.0,-366.0,-4880.0,0.0,14.85,0.0,0.0,-2.89,0.0
2.0,1.0,34156250.0,-1520.0,-508.0,-4773.0,0.0,14.85,0.0,0.0,-2.89,0.0
2.0,1.0,34168945.0,-1473.0,-672.0,-4672.0,0.0,14.85,0.0,0.0,-2.89,0.0
2.0,1.0,34181640.0,-1360.0,-769.0,-4429.0,0.0,14.85,0.0,0.0,-2.89,0.0
2.0,1.0,34194335.0,-1295.0,-779.0,-4234.0,0.0,14.85,0.0,0.0,-2.89,0.0
2.0,1.0,34207031.0,-1274.0,-718.0,-4121.0,0.0,14.85,0.0,0.0,-2.89,0.0
2.0,1.0,34219726.0,-1277.0,-664.0,-4126.0,0.0,14.85,0.0,0.0,-2.89,0.0
2.0,1.0,34232421.0,-1298.0,-616.0,-4168.0,0.0,14.85,0.0,0.0,-2.89,0.0
2.0,1.0,34245117.0,-1311.0,-573.0,-4287.0,0.0,14.85,0.0,0.0,-2.89,0.0
2.0,1.0,34257812.0,-1353.0,-549.0,-4475.0,0.0,14.85,0.0,0.0,-2.89,0.0
2.0,1.0,34270507.0,-1422.0,-578.0,-4598.0,0.0,14.85,0.0,0.0,-2.89,0.0
2.0,1.0,34283203.0,-1461.0,-566.0,-4684.0,0.0,14.85,0.0,0.0,-2.89,0.0
2.0,1.0,34295898.0,-1494.0,-630.0,-4738.0,0.0,14.85,0.0,0.0,-2.89,0.0
2.0,1.0,34308593.0,-1471.0,-741.0,-4622.0,0.0,14.85,0.0,0.0,-2.89,0.0
2.0,1.0,34321289.0,-1436.0,-847.0,-4507.0,0.0,14.85,0.0,0.0,-2.89,0.0
2.0,1.0,34333984.0,-1402.0,-967.0,-4319.0,0.0,14.85,0.0,0.0,-2.89,0.0
2.0,1.0,34346679.0,-1380.0,-1065.0,-4122.0,0.0,14.85,0.0,0.0,-2.89,0.0
2.0,1.0,34359375.0,-1337.0,-1117.0,-3955.0,0.0,14.85,0.0,0.0,-2.89,0.0
2.0,1.0,34372070.0,-1357.0,-1086.0,-4000.0,0.0,14.85,0.0,0.0,-2.89,0.0
2.0,1.0,34384765.0,-1473.0,-1048.0,-4096.0,0.0,14.85,0.0,0.0,-2.89,0.0
2.0,1.0,34397460.0,-1546.0,-943.0,-4226.0,0.0,14.85,0.0,0.0,-2.89,0.0
2.0,1.0,34410156.0,-1652.0,-848.0,-4428.0,0.0,14.85,0.0,0.0,-2.89,0.0
2.0,1.0,34422851.0,-1720.0,-819.0,-4572.0,0.0,14.85,0.0,0.0,-2.89,0.0
2.0,1.0,34435546.0,-1803.0,-723.0,-4698.0,0.0,14.85,0.0,0.0,-2.89,0.0
2.0,1.0,34448242.0,-1850.0,-736.0,-4873.0,0.0,14.85,0.0,0.0,-2.89,0.0
2.0,1.0,34460937.0,-1884.0,-687.0,-4986.0,0.0,14.85,0.0,0.0,-2.89,0.0
2.0,1.0,34473632.0,-1917.0,-658.0,-5121.0,0.0,14.85,0.0,0.0,-2.89,0.0
2.0,1.0,34486328.0,-1878.0,-655.0,-5232.0,0.0,14.85,0.0,0.0,-2.89,0.0
2.0,1.0,34499023.0,-1879.0,-608.0,-5327.0,0.0,14.85,0.0,0.0,-2.89,0.0
2.0,1.0,34511718.0,-1884.0,-562.0,-5399.0,0.0,14.85,0.0,0.0,-2.89,0.0
2.0,1.0,34524414.0,-1892.0,-474.0,-5496.0,0.0,14.85,0.0,0.0,-2.89,0.0
2.0,1.0,34537109.0,-1899.0,-469.0,-5584.0,0.0,14.85,0.0,0.0,-2.89,0.0
2.0,1.0,34549804.0,-1899.0,-468.0,-5544.0,0.0,14.85,0.0,0.0,-2.89,0.0
2.0,1.0,34562500.0,-1868.0,-489.0,-5556.0,0.0,14.85,0.0,0.0,-2.89,0.0
2.0,1.0,34575195.0,-1857.0,-550.0,-5513.0,0.0,14.85,0.0,0.0,-2.89,0.0
2.0,1.0,34587890.0,-1814.0,-652.0,-5472.0,0.0,14.85,0.0,0.0,-2.89,0.0
2.0,1.0,34600585.0,-1728.0,-836.0,-5393.0,0.0,14.85,0.0,0.0,-2.89,0.0
2.0,1.0,34613281.0,-1621.0,-1085.0,-5272.0,0.0,14.85,0.0,0.0,-2.89,0.0
2.0,1.0,34625976.0,-1477.0,-1406.0,-5066.0,0.0,14.85,0.0,0.0,-2.89,0.0
2.0,1.0,34638671.0,-1374.0,-1799.0,-4753.0,0.0,14.85,0.0,0.0,-2.89,0.0
2.0,1.0,34651367.0,-1251.0,-2100.0,-4408.0,0.0,14.85,0.0,0.0,-2.89,0.0
2.0,1.0,34665039.0,-1111.0,-2383.0,-4077.0,0.0,14.85,0.0,0.0,-2.89,0.0
2.0,1.0,34676757.0,-995.0,-2486.0,-3933.0,0.0,14.85,0.0,0.0,-2.89,0.0
2.0,1.0,34689453.0,-942.0,-2491.0,-4000.0,0.0,14.85,0.0,0.0,-2.89,0.0
2.0,1.0,34702148.0,-960.0,-2344.0,-4273.0,0.0,14.85,0.0,0.0,-2.89,0.0
2.0,1.0,34714843.0,-1061.0,-2220.0,-4521.0,0.0,14.85,0.0,0.0,-2.89,0.0
2.0,1.0,34727539.0,-1127.0,-2044.0,-4817.0,0.0,14.85,0.0,0.0,-2.89,0.0
2.0,1.0,34740234.0,-1293.0,-1778.0,-5164.0,0.0,14.85,0.0,0.0,-2.89,0.0
2.0,1.0,34752929.0,-1395.0,-1502.0,-5428.0,0.0,14.85,0.0,0.0,-2.89,0.0
2.0,1.0,34765625.0,-1495.0,-1250.0,-5655.0,0.0,14.85,0.0,0.0,-2.89,0.0
2.0,1.0,34778320.0,-1563.0,-1104.0,-5737.0,0.0,14.85,0.0,0.0,-2.89,0.0
2.0,1.0,34791015.0,-1599.0,-1038.0,-5801.0,0.0,14.85,0.0,0.0,-2.89,0.0
2.0,1.0,34803710.0,-1602.0,-1045.0,-5866.0,0.0,14.85,0.0,0.0,-2.89,0.0
2.0,1.0,34816406.0,-1533.0,-1141.0,-5793.0,0.0,14.85,0.0,0.0,-2.89,0.0
2.0,1.0,34829101.0,-1514.0,-1439.0,-5651.0,0.0,14.85,0.0,0.0,-2.89,0.0
2.0,1.0,34841796.0,-1454.0,-1782.0,-5439.0,0.0,14.85,0.0,0.0,-2.89,0.0
2.0,1.0,34854492.0,-1409.0,-2188.0,-5112.0,0.0,14.85,0.0,0.0,-2.89,0.0
2.0,1.0,34867187.0,-1338.0,-2672.0,-4647.0,0.0,14.85,0.0,0.0,-2.89,0.0
2.0,1.0,34879882.0,-1184.0,-2962.0,-4389.0,0.0,14.85,0.0,0.0,-2.89,0.0
2.0,1.0,34892578.0,-1089.0,-3161.0,-4330.0,0.0,14.85,0.0,0.0,-2.89,0.0
2.0,1.0,34905273.0,-1034.0,-3187.0,-4503.0,0.0,14.85,0.0,0.0,-2.89,0.0
2.0,1.0,34917968.0,-1102.0,-3163.0,-4651.0,0.0,14.85,0.0,0.0,-2.89,0.0
2.0,1.0,34930664.0,-1193.0,-3145.0,-4797.0,0.0,14.85,0.0,0.0,-2.89,0.0
2.0,1.0,34943359.0,-1310.0,-3089.0,-4960.0,0.0,14.85,0.0,0.0,-2.89,0.0
2.0,1.0,34956054.0,-1428.0,-3000.0,-5121.0,0.0,14.85,0.0,0.0,-2.89,0.0
2.0,1.0,34968750.0,-1469.0,-2904.0,-5247.0,0.0,14.85,0.0,0.0,-2.89,0.0
2.0,1.0,34981445.0,-1510.0,-2767.0,-5397.0,0.0,14.85,0.0,0.0,-2.89,0.0
2.0,1.0,34994140.0,-1558.0,-2628.0,-5489.0,0.0,14.85,0.0,0.0,-2.89,0.0
2.0,1.0,35006835.0,-1613.0,-2502.0,-5506.0,0.0,14.85,0.0,0.0,-2.89,0.0
2.0,1.0,35019531.0,-1558.0,-2409.0,-5457.0,0.0,14.85,0.0,0.0,-2.89,0.0
2.0,1.0,35032226.0,-1545.0,-2418.0,-5387.0,0.0,14.85,0.0,0.0,-2.89,0.0
2.0,1.0,35044921.0,-1466.0,-2481.0,-5244.0,0.0,14.85,0.0,0.0,-2.89,0.0
2.0,1.0,35057617.0,-1373.0,-2584.0,-5070.0,0.0,14.85,0.0,0.0,-2.89,0.0
2.0,1.0,35070312.0,-1269.0,-2693.0,-4863.0,0.0,14.85,0.0,0.0,-2.89,0.0
2.0,1.0,35083007.0,-1194.0,-2872.0,-4598.0,0.0,14.85,0.0,0.0,-2.89,0.0
2.0,1.0,35095703.0,-1063.0,-2980.0,-4366.0,0.0,14.85,0.0,0.0,-2.89,0.0
2.0,1.0,35108398.0,-918.0,-3163.0,-4173.0,0.0,14.85,0.0,0.0,-2.89,0.0
2.0,1.0,35121093.0,-832.0,-3231.0,-4090.0,0.0,14.85,0.0,0.0,-2.89,0.0
2.0,1.0,35133789.0,-844.0,-3304.0,-4186.0,0.0,14.85,0.0,0.0,-2.89,0.0
2.0,1.0,35146484.0,-943.0,-3302.0,-4316.0,0.0,14.85,0.0,0.0,-2.89,0.0
2.0,1.0,35159179.0,-1082.0,-3286.0,-4514.0,0.0,14.85,0.0,0.0,-2.89,0.0
2.0,1.0,35171875.0,-1236.0,-3270.0,-4717.0,0.0,14.85,0.0,0.0,-2.89,0.0
2.0,1.0,35184570.0,-1378.0,-3264.0,-4900.0,0.0,14.85,0.0,0.0,-2.89,0.0
2.0,1.0,35197265.0,-1573.0,-3200.0,-5058.0,0.0,14.85,0.0,0.0,-2.89,0.0
2.0,1.0,35209960.0,-1744.0,-3181.0,-5177.0,0.0,14.85,0.0,0.0,-2.89,0.0
2.0,1.0,35222656.0,-1824.0,-3122.0,-5278.0,0.0,14.85,0.0,0.0,-2.89,0.0
2.0,1.0,35235351.0,-1889.0,-3087.0,-5343.0,0.0,14.85,0.0,0.0,-2.89,0.0
2.0,1.0,35248046.0,-1944.0,-3072.0,-5414.0,0.0,14.85,0.0,0.0,-2.89,0.0
2.0,1.0,35260742.0,-1955.0,-3076.0,-5396.0,0.0,14.85,0.0,0.0,-2.89,0.0
2.0,1.0,35273437.0,-1924.0,-3171.0,-5279.0,0.0,14.85,0.0,0.0,-2.89,0.0
2.0,1.0,35286132.0,-1831.0,-3248.0,-5069.0,0.0,14.85,0.0,0.0,-2.89,0.0
2.0,1.0,35298828.0,-1721.0,-3380.0,-4845.0,0.0,14.85,0.0,0.0,-2.89,0.0
2.0,1.0,35311523.0,-1556.0,-3465.0,-4526.0,0.0,14.85,0.0,0.0,-2.89,0.0
2.0,1.0,35325195.0,-1382.0,-3543.0,-4296.0,0.0,14.85,0.0,0.0,-2.89,0.0
2.0,1.0,35336914.0,-1259.0,-3489.0,-4155.0,0.0,14.85,0.0,0.0,-2.89,0.0
2.0,1.0,35349609.0,-1189.0,-3396.0,-4243.0,0.0,14.85,0.0,0.0,-2.89,0.0
2.0,1.0,35362304.0,-1129.0,-3300.0,-4287.0,0.0,14.85,0.0,0.0,-2.89,0.0
2.0,1.0,35375000.0,-1118.0,-3173.0,-4331.0,0.0,14.85,0.0,0.0,-2.89,0.0
2.0,1.0,35387695.0,-1138.0,-3051.0,-4488.0,0.0,14.85,0.0,0.0,-2.89,0.0
2.0,1.0,35400390.0,-1213.0,-2899.0,-4629.0,0.0,14.85,0.0,0.0,-2.89,0.0
2.0,1.0,35414062.0,-1282.0,-2760.0,-4881.0,0.0,14.85,0.0,0.0,-2.89,0.0
2.0,1.0,35425781.0,-1371.0,-2600.0,-5057.0,0.0,14.85,0.0,0.0,-2.89,0.0
2.0,1.0,35438476.0,-1532.0,-2443.0,-5219.0,0.0,14.85,0.0,0.0,-2.89,0.0
2.0,1.0,35451171.0,-1596.0,-2385.0,-5364.0,0.0,14.85,0.0,0.0,-2.89,0.0
2.0,1.0,35463867.0,-1698.0,-2339.0,-5359.0,0.0,14.85,0.0,0.0,-2.89,0.0
2.0,1.0,35476562.0,-1743.0,-2399.0,-5332.0,0.0,14.85,0.0,0.0,-2.89,0.0
2.0,1.0,35489257.0,-1726.0,-2472.0,-5309.0,0.0,14.85,0.0,0.0,-2.89,0.0
2.0,1.0,35501953.0,-1651.0,-2589.0,-5112.0,0.0,14.85,0.0,0.0,-2.89,0.0
2.0,1.0,35514648.0,-1534.0,-2758.0,-4825.0,0.0,14.85,0.0,0.0,-2.89,0.0
2.0,1.0,35527343.0,-1353.0,-2945.0,-4444.0,0.0,14.85,0.0,0.0,-2.89,0.0
2.0,1.0,35540039.0,-1131.0,-3111.0,-3983.0,0.0,14.85,0.0,0.0,-2.89,0.0
2.0,1.0,35552734.0,-946.0,-3234.0,-3494.0,0.0,14.85,0.0,0.0,-2.89,0.0
2.0,1.0,35565429.0,-799.0,-3291.0,-2965.0,0.0,14.85,0.0,0.0,-2.89,0.0
2.0,1.0,35578125.0,-664.0,-3303.0,-2513.0,0.0,14.85,0.0,0.0,-2.89,0.0
2.0,1.0,35590820.0,-526.0,-3241.0,-2205.0,0.0,14.85,0.0,0.0,-2.89,0.0
2.0,1.0,35603515.0,-493.0,-3208.0,-2037.0,0.0,14.85,0.0,0.0,-2.89,0.0
2.0,1.0,35616210.0,-474.0,-3176.0,-1838.0,0.0,14.85,0.0,0.0,-2.89,0.0
2.0,1.0,35628906.0,-522.0,-3169.0,-1827.0,0.0,14.85,0.0,0.0,-2.89,0.0
2.0,1.0,35641601.0,-588.0,-3163.0,-1914.0,0.0,14.85,0.0,0.0,-2.89,0.0
2.0,1.0,35654296.0,-614.0,-3198.0,-2032.0,0.0,14.85,0.0,0.0,-2.89,0.0
2.0,1.0,35666992.0,-709.0,-3261.0,-2210.0,0.0,14.85,0.0,0.0,-2.89,0.0
2.0,1.0,35679687.0,-718.0,-3359.0,-2376.0,0.0,14.85,0.0,0.0,-2.89,0.0
2.0,1.0,35692382.0,-717.0,-3438.0,-2632.0,0.0,14.85,0.0,0.0,-2.89,0.0
2.0,1.0,35705078.0,-718.0,-3514.0,-2901.0,0.0,14.85,0.0,0.0,-2.89,0.0
2.0,1.0,35717773.0,-708.0,-3577.0,-3172.0,0.0,14.85,0.0,0.0,-2.89,0.0
2.0,1.0,35730468.0,-707.0,-3612.0,-3389.0,0.0,14.85,0.0,0.0,-2.89,0.0
2.0,1.0,35744140.0,-713.0,-3622.0,-3591.0,0.0,14.85,0.0,0.0,-2.89,0.0
2.0,1.0,35755859.0,-750.0,-3676.0,-3704.0,0.0,14.85,0.0,0.0,-2.89,0.0
2.0,1.0,35768554.0,-715.0,-3699.0,-3748.0,0.0,14.85,0.0,0.0,-2.89,0.0
2.0,1.0,35781250.0,-696.0,-3749.0,-3708.0,0.0,14.85,0.0,0.0,-2.89,0.0
2.0,1.0,35793945.0,-655.0,-3779.0,-3633.0,0.0,14.85,0.0,0.0,-2.89,0.0
2.0,1.0,35806640.0,-633.0,-3823.0,-3442.0,0.0,14.85,0.0,0.0,-2.89,0.0
2.0,1.0,35819335.0,-607.0,-3893.0,-3160.0,0.0,14.85,0.0,0.0,-2.89,0.0
2.0,1.0,35832031.0,-565.0,-3898.0,-2731.0,0.0,14.85,0.0,0.0,-2.89,0.0
2.0,1.0,35844726.0,-520.0,-3884.0,-2130.0,0.0,14.85,0.0,0.0,-2.89,0.0
2.0,1.0,35857421.0,-519.0,-3778.0,-1532.0,0.0,14.85,0.0,0.0,-2.89,0.0
2.0,1.0,35870117.0,-547.0,-3539.0,-898.0,0.0,14.85,0.0,0.0,-2.89,0.0
2.0,1.0,35882812.0,-625.0,-3333.0,-508.0,0.0,14.85,0.0,0.0,-2.89,0.0
2.0,1.0,35895507.0,-683.0,-3221.0,-502.0,0.0,14.85,0.0,0.0,-2.89,0.0
2.0,1.0,35908203.0,-694.0,-3283.0,-756.0,0.0,14.85,0.0,0.0,-2.89,0.0
2.0,1.0,35920898.0,-723.0,-3455.0,-1180.0,0.0,14.85,0.0,0.0,-2.89,0.0
2.0,1.0,35933593.0,-712.0,-3542.0,-1683.0,0.0,14.85,0.0,0.0,-2.89,0.0
2.0,1.0,35946289.0,-673.0,-3614.0,-2199.0,0.0,14.85,0.0,0.0,-2.89,0.0
2.0,1.0,35958984.0,-647.0,-3632.0,-2591.0,0.0,14.85,0.0,0.0,-2.89,0.0
2.0,1.0,35971679.0,-645.0,-3648.0,-2801.0,0.0,14.85,0.0,0.0,-2.89,0.0
2.0,1.0,35984375.0,-666.0,-3632.0,-2814.0,0.0,14.85,0.0,0.0,-2.89,0.0
2.0,1.0,35997070.0,-698.0,-3648.0,-2645.0,0.0,14.85,0.0,0.0,-2.89,0.0
2.0,1.0,36009765.0,-679.0,-3663.0,-2421.0,0.0,14.85,0.0,0.0,-2.89,0.0
2.0,1.0,36022460.0,-671.0,-3606.0,-1979.0,0.0,14.85,0.0,0.0,-2.89,0.0
2.0,1.0,36035156.0,-672.0,-3518.0,-1443.0,0.0,14.85,0.0,0.0,-2.89,0.0
2.0,1.0,36047851.0,-694.0,-3328.0,-786.0,0.0,14.85,0.0,0.0,-2.89,0.0
2.0,1.0,36060546.0,-765.0,-3017.0,-542.0,0.0,14.85,0.0,0.0,-2.89,0.0
2.0,1.0,36073242.0,-746.0,-3042.0,-632.0,0.0,14.85,0.0,0.0,-2.89,0.0
2.0,1.0,36085937.0,-789.0,-3095.0,-714.0,0.0,14.85,0.0,0.0,-2.89,0.0
2.0,1.0,36098632.0,-780.0,-3182.0,-967.0,0.0,14.85,0.0,0.0,-2.89,0.0
2.0,1.0,36111328.0,-718.0,-3288.0,-1339.0,0.0,14.85,0.0,0.0,-2.89,0.0
2.0,1.0,36124023.0,-720.0,-3408.0,-1736.0,0.0,14.85,0.0,0.0,-2.89,0.0
2.0,1.0,36136718.0,-690.0,-3420.0,-2066.0,0.0,14.85,0.0,0.0,-2.89,0.0
2.0,1.0,36149414.0,-656.0,-3441.0,-2273.0,0.0,14.85,0.0,0.0,-2.89,0.0
2.0,1.0,36162109.0,-637.0,-3418.0,-2316.0,0.0,14.85,0.0,0.0,-2.89,0.0
2.0,1.0,36174804.0,-620.0,-3418.0,-2300.0,0.0,14.85,0.0,0.0,-2.89,0.0
2.0,1.0,36187500.0,-648.0,-3357.0,-2156.0,0.0,14.85,0.0,0.0,-2.89,0.0
2.0,1.0,36200195.0,-634.0,-3324.0,-1816.0,0.0,14.85,0.0,0.0,-2.89,0.0
2.0,1.0,36212890.0,-659.0,-3213.0,-1376.0,0.0,14.85,0.0,0.0,-2.89,0.0
2.0,1.0,36225585.0,-678.0,-2991.0,-777.0,0.0,14.85,0.0,0.0,-2.89,0.0
2.0,1.0,36238281.0,-739.0,-2811.0,-633.0,0.0,14.85,0.0,0.0,-2.89,0.0
2.0,1.0,36250976.0,-759.0,-2861.0,-676.0,0.0,14.85,0.0,0.0,-2.89,0.0
2.0,1.0,36263671.0,-770.0,-2834.0,-707.0,0.0,14.85,0.0,0.0,-2.89,0.0
2.0,1.0,36276367.0,-737.0,-2902.0,-857.0,0.0,14.85,0.0,0.0,-2.89,0.0
2.0,1.0,36289062.0,-744.0,-2993.0,-1174.0,0.0,14.85,0.0,0.0,-2.89,0.0
2.0,1.0,36301757.0,-787.0,-3104.0,-1627.0,0.0,14.85,0.0,0.0,-2.89,0.0
2.0,1.0,36314453.0,-746.0,-3171.0,-2150.0,0.0,14.85,0.0,0.0,-2.89,0.0
2.0,1.0,36327148.0,-714.0,-3198.0,-2492.0,0.0,14.85,0.0,0.0,-2.89,0.0
2.0,1.0,36339843.0,-734.0,-3173.0,-2749.0,0.0,14.85,0.0,0.0,-2.89,0.0
2.0,1.0,36352539.0,-724.0,-3144.0,-2925.0,0.0,14.85,0.0,0.0,-2.89,0.0
2.0,1.0,36365234.0,-763.0,-3128.0,-2896.0,0.0,14.85,0.0,0.0,-2.89,0.0
2.0,1.0,36377929.0,-741.0,-3130.0,-2646.0,0.0,14.85,0.0,0.0,-2.89,0.0
2.0,1.0,36390625.0,-716.0,-3109.0,-2295.0,0.0,14.85,0.0,0.0,-2.89,0.0
2.0,1.0,36403320.0,-698.0,-3073.0,-1677.0,0.0,14.85,0.0,0.0,-2.89,0.0
2.0,1.0,36416015.0,-732.0,-2890.0,-958.0,0.0,14.85,0.0,0.0,-2.89,0.0
2.0,1.0,36428710.0,-807.0,-2722.0,-689.0,0.0,14.85,0.0,0.0,-2.89,0.0
2.0,1.0,36441406.0,-783.0,-2737.0,-730.0,0.0,14.85,0.0,0.0,-2.89,0.0
2.0,1.0,36454101.0,-794.0,-2712.0,-793.0,0.0,14.85,0.0,0.0,-2.89,0.0
2.0,1.0,36466796.0,-758.0,-2812.0,-1049.0,0.0,14.85,0.0,0.0,-2.89,0.0
2.0,1.0,36479492.0,-723.0,-2967.0,-1403.0,0.0,14.85,0.0,0.0,-2.89,0.0
2.0,1.0,36493164.0,-742.0,-3051.0,-1770.0,0.0,14.85,0.0,0.0,-2.89,0.0
2.0,1.0,36504882.0,-714.0,-3127.0,-2085.0,0.0,14.85,0.0,0.0,-2.89,0.0
2.0,1.0,36517578.0,-674.0,-3157.0,-2307.0,0.0,14.85,0.0,0.0,-2.89,0.0
2.0,1.0,36530273.0,-663.0,-3142.0,-2447.0,0.0,14.85,0.0,0.0,-2.89,0.0
2.0,1.0,36542968.0,-685.0,-3152.0,-2357.0,0.0,14.85,0.0,0.0,-2.89,0.0
2.0,1.0,36555664.0,-695.0,-3122.0,-2147.0,0.0,14.85,0.0,0.0,-2.89,0.0
2.0,1.0,36568359.0,-683.0,-3081.0,-1793.0,0.0,14.85,0.0,0.0,-2.89,0.0
2.0,1.0,36581054.0,-666.0,-2953.0,-1290.0,0.0,14.85,0.0,0.0,-2.89,0.0
2.0,1.0,36593750.0,-705.0,-2699.0,-741.0,0.0,14.85,0.0,0.0,-2.89,0.0
2.0,1.0,36606445.0,-814.0,-2687.0,-722.0,0.0,14.85,0.0,0.0,-2.89,0.0
2.0,1.0,36619140.0,-797.0,-2683.0,-695.0,0.0,14.85,0.0,0.0,-2.89,0.0
2.0,1.0,36631835.0,-785.0,-2706.0,-683.0,0.0,14.85,0.0,0.0,-2.89,0.0
2.0,1.0,36644531.0,-743.0,-2742.0,-778.0,0.0,14.85,0.0,0.0,-2.89,0.0
2.0,1.0,36657226.0,-740.0,-2866.0,-1048.0,0.0,14.85,0.0,0.0,-2.89,0.0
2.0,1.0,36669921.0,-722.0,-3006.0,-1404.0,0.0,14.85,0.0,0.0,-2.89,0.0
2.0,1.0,36682617.0,-670.0,-3141.0,-1671.0,0.0,14.85,0.0,0.0,-2.89,0.0
2.0,1.0,36695312.0,-669.0,-3186.0,-2035.0,0.0,14.85,0.0,0.0,-2.89,0.0
2.0,1.0,36708007.0,-667.0,-3201.0,-2291.0,0.0,14.85,0.0,0.0,-2.89,0.0
2.0,1.0,36720703.0,-645.0,-3167.0,-2365.0,0.0,14.85,0.0,0.0,-2.89,0.0
2.0,1.0,36733398.0,-659.0,-3161.0,-2378.0,0.0,14.85,0.0,0.0,-2.89,0.0
2.0,1.0,36746093.0,-616.0,-3119.0,-2212.0,0.0,14.85,0.0,0.0,-2.89,0.0
2.0,1.0,36758789.0,-615.0,-3098.0,-1860.0,0.0,14.85,0.0,0.0,-2.89,0.0
2.0,1.0,36771484.0,-640.0,-2991.0,-1324.0,0.0,14.85,0.0,0.0,-2.89,0.0
2.0,1.0,36784179.0,-661.0,-2775.0,-720.0,0.0,14.85,0.0,0.0,-2.89,0.0
2.0,1.0,36796875.0,-748.0,-2711.0,-642.0,0.0,14.85,0.0,0.0,-2.89,0.0
2.0,1.0,36809570.0,-731.0,-2693.0,-679.0,0.0,14.85,0.0,0.0,-2.89,0.0
2.0,1.0,36822265.0,-719.0,-2711.0,-698.0,0.0,14.85,0.0,0.0,-2.89,0.0
2.0,1.0,36834960.0,-681.0,-2824.0,-921.0,0.0,14.85,0.0,0.0,-2.89,0.0
2.0,1.0,36847656.0,-707.0,-2946.0,-1316.0,0.0,14.85,0.0,0.0,-2.89,0.0
2.0,1.0,36860351.0,-703.0,-3042.0,-1677.0,0.0,14.85,0.0,0.0,-2.89,0.0
2.0,1.0,36873046.0,-661.0,-3084.0,-1993.0,0.0,14.85,0.0,0.0,-2.89,0.0
2.0,1.0,36885742.0,-661.0,-3065.0,-2271.0,0.0,14.85,0.0,0.0,-2.89,0.0
2.0,1.0,36898437.0,-631.0,-3015.0,-2401.0,0.0,14.85,0.0,0.0,-2.89,0.0
2.0,1.0,36911132.0,-632.0,-3041.0,-2399.0,0.0,14.85,0.0,0.0,-2.89,0.0
2.0,1.0,36923828.0,-620.0,-3047.0,-2284.0,0.0,14.85,0.0,0.0,-2.89,0.0
2.0,1.0,36936523.0,-632.0,-3017.0,-2016.0,0.0,14.85,0.0,0.0,-2.89,0.0
2.0,1.0,36949218.0,-610.0,-3049.0,-1472.0,0.0,14.85,0.0,0.0,-2.89,0.0
2.0,1.0,36961914.0,-601.0,-2882.0,-873.0,0.0,14.85,0.0,0.0,-2.89,0.0
2.0,1.0,36974609.0,-664.0,-2747.0,-630.0,0.0,14.85,0.0,0.0,-2.89,0.0
2.0,1.0,36987304.0,-677.0,-2757.0,-620.0,0.0,14.85,0.0,0.0,-2.89,0.0
2.0,1.0,37000000.0,-686.0,-2810.0,-694.0,0.0,14.85,0.0,0.0,-2.89,0.0
2.0,1.0,37012695.0,-634.0,-2884.0,-883.0,0.0,14.85,0.0,0.0,-2.89,0.0
2.0,1.0,37025390.0,-610.0,-3018.0,-1244.0,0.0,14.85,0.0,0.0,-2.89,0.0
2.0,1.0,37038085.0,-591.0,-3119.0,-1671.0,0.0,14.85,0.0,0.0,-2.89,0.0
2.0,1.0,37050781.0,-553.0,-3192.0,-2103.0,0.0,14.85,0.0,0.0,-2.89,0.0
2.0,1.0,37063476.0,-520.0,-3171.0,-2392.0,0.0,14.85,0.0,0.0,-2.89,0.0
2.0,1.0,37076171.0,-555.0,-3105.0,-2593.0,0.0,14.85,0.0,0.0,-2.89,0.0
2.0,1.0,37088867.0,-545.0,-3064.0,-2641.0,0.0,14.85,0.0,0.0,-2.89,0.0
2.0,1.0,37101562.0,-562.0,-3098.0,-2531.0,0.0,14.85,0.0,0.0,-2.89,0.0
2.0,1.0,37114257.0,-537.0,-3116.0,-2246.0,0.0,14.85,0.0,0.0,-2.89,0.0
2.0,1.0,37126953.0,-509.0,-3076.0,-1741.0,0.0,14.85,0.0,0.0,-2.89,0.0
2.0,1.0,37139648.0,-495.0,-2995.0,-1083.0,0.0,14.85,0.0,0.0,-2.89,0.0
2.0,1.0,37152343.0,-640.0,-2832.0,-625.0,0.0,14.85,0.0,0.0,-2.89,0.0
2.0,1.0,37165039.0,-678.0,-2831.0,-587.0,0.0,14.85,0.0,0.0,-2.89,0.0
2.0,1.0,37177734.0,-673.0,-2845.0,-626.0,0.0,14.85,0.0,0.0,-2.89,0.0
2.0,1.0,37190429.0,-594.0,-2890.0,-762.0,0.0,14.85,0.0,0.0,-2.89,0.0
2.0,1.0,37203125.0,-594.0,-3010.0,-1209.0,0.0,14.85,0.0,0.0,-2.89,0.0
2.0,1.0,37215820.0,-595.0,-3118.0,-1741.0,0.0,14.85,0.0,0.0,-2.89,0.0
2.0,1.0,37228515.0,-566.0,-3170.0,-2255.0,0.0,14.85,0.0,0.0,-2.89,0.0
2.0,1.0,37241210.0,-527.0,-3131.0,-2723.0,0.0,14.85,0.0,0.0,-2.89,0.0
2.0,1.0,37253906.0,-554.0,-3047.0,-3006.0,0.0,14.85,0.0,0.0,-2.89,0.0
2.0,1.0,37266601.0,-533.0,-3005.0,-3211.0,0.0,14.85,0.0,0.0,-2.89,0.0
2.0,1.0,37279296.0,-539.0,-2970.0,-3209.0,0.0,14.85,0.0,0.0,-2.89,0.0
2.0,1.0,37291992.0,-505.0,-3041.0,-3102.0,0.0,14.85,0.0,0.0,-2.89,0.0
2.0,1.0,37304687.0,-508.0,-3093.0,-2706.0,0.0,14.85,0.0,0.0,-2.89,0.0
2.0,1.0,37317382.0,-481.0,-3173.0,-2024.0,0.0,14.85,0.0,0.0,-2.89,0.0
2.0,1.0,37330078.0,-451.0,-3226.0,-1138.0,0.0,14.85,0.0,0.0,-2.89,0.0
2.0,1.0,37342773.0,-549.0,-2969.0,-525.0,0.0,14.85,0.0,0.0,-2.89,0.0
2.0,1.0,37355468.0,-656.0,-2867.0,-536.0,0.0,14.85,0.0,0.0,-2.89,0.0
2.0,1.0,37368164.0,-695.0,-2851.0,-570.0,0.0,14.85,0.0,0.0,-2.89,0.0
2.0,1.0,37380859.0,-692.0,-2853.0,-543.0,0.0,14.85,0.0,0.0,-2.89,0.0
2.0,1.0,37393554.0,-624.0,-2869.0,-536.0,0.0,14.85,0.0,0.0,-2.89,0.0
2.0,1.0,37406250.0,-645.0,-2892.0,-572.0,0.0,14.85,0.0,0.0,-2.89,0.0
2.0,1.0,37418945.0,-660.0,-2874.0,-765.0,0.0,14.85,0.0,0.0,-2.89,0.0
2.0,1.0,37431640.0,-625.0,-2893.0,-534.0,0.0,14.85,0.0,0.0,-2.89,0.0
3.0,1.0,85222656.0,-743.0,-2915.0,-703.0,0.0,14.85,0.0,0.0,-2.89,0.0
3.0,1.0,85235351.0,-736.0,-2927.0,-713.0,0.0,14.85,0.0,0.0,-2.89,0.0
3.0,1.0,85248046.0,-718.0,-2933.0,-649.0,0.0,14.85,0.0,0.0,-2.89,0.0
3.0,1.0,85260742.0,-739.0,-2948.0,-701.0,0.0,14.85,0.0,0.0,-2.89,0.0
3.0,1.0,85273437.0,-736.0,-2947.0,-716.0,0.0,14.85,0.0,0.0,-2.89,0.0
3.0,1.0,85286132.0,-758.0,-2964.0,-723.0,0.0,14.85,0.0,0.0,-2.89,0.0
3.0,1.0,85298828.0,-754.0,-2956.0,-751.0,0.0,14.85,0.0,0.0,-2.89,0.0
3.0,1.0,85311523.0,-773.0,-2939.0,-695.0,0.0,14.85,0.0,0.0,-2.89,0.0
3.0,1.0,85324218.0,-774.0,-2934.0,-695.0,0.0,14.85,0.0,0.0,-2.89,0.0
3.0,1.0,85336914.0,-778.0,-2919.0,-664.0,0.0,14.85,0.0,0.0,-2.89,0.0
3.0,1.0,85349609.0,-782.0,-2918.0,-757.0,0.0,14.85,0.0,0.0,-2.89,0.0
3.0,1.0,85362304.0,-791.0,-2941.0,-710.0,0.0,14.85,0.0,0.0,-2.89,0.0
3.0,1.0,85375000.0,-807.0,-2910.0,-741.0,0.0,14.85,0.0,0.0,-2.89,0.0
3.0,1.0,85387695.0,-779.0,-2946.0,-711.0,0.0,14.85,0.0,0.0,-2.89,0.0
3.0,1.0,85400390.0,-784.0,-2945.0,-706.0,0.0,14.85,0.0,0.0,-2.89,0.0
3.0,1.0,85413085.0,-804.0,-2920.0,-726.0,0.0,14.85,0.0,0.0,-2.89,0.0
3.0,1.0,85425781.0,-754.0,-2953.0,-772.0,0.0,14.85,0.0,0.0,-2.89,0.0
3.0,1.0,85438476.0,-765.0,-2950.0,-765.0,0.0,14.85,0.0,0.0,-2.89,0.0
3.0,1.0,85451171.0,-774.0,-2941.0,-751.0,0.0,14.85,0.0,0.0,-2.89,0.0
3.0,1.0,85463867.0,-742.0,-2946.0,-682.0,0.0,14.85,0.0,0.0,-2.89,0.0
3.0,1.0,85476562.0,-749.0,-2971.0,-726.0,0.0,14.85,0.0,0.0,-2.89,0.0
3.0,1.0,85489257.0,-743.0,-2953.0,-754.0,0.0,14.85,0.0,0.0,-2.89,0.0
3.0,1.0,85501953.0,-764.0,-2913.0,-733.0,0.0,14.85,0.0,0.0,-2.89,0.0
3.0,1.0,85514648.0,-764.0,-2923.0,-724.0,0.0,14.85,0.0,0.0,-2.89,0.0
3.0,1.0,85527343.0,-764.0,-2918.0,-673.0,0.0,14.85,0.0,0.0,-2.89,0.0
3.0,1.0,85540039.0,-749.0,-2928.0,-686.0,0.0,14.85,0.0,0.0,-2.89,0.0
3.0,1.0,85552734.0,-770.0,-2930.0,-719.0,0.0,14.85,0.0,0.0,-2.89,0.0
3.0,1.0,85565429.0,-762.0,-2887.0,-749.0,0.0,14.85,0.0,0.0,-2.89,0.0
3.0,1.0,85578125.0,-757.0,-2909.0,-729.0,0.0,14.85,0.0,0.0,-2.89,0.0
3.0,1.0,85590820.0,-770.0,-2915.0,-696.0,0.0,14.85,0.0,0.0,-2.89,0.0
3.0,1.0,85603515.0,-782.0,-2925.0,-713.0,0.0,14.85,0.0,0.0,-2.89,0.0
3.0,1.0,85616210.0,-751.0,-2907.0,-735.0,0.0,14.85,0.0,0.0,-2.89,0.0
3.0,1.0,85628906.0,-788.0,-2931.0,-733.0,0.0,14.85,0.0,0.0,-2.89,0.0
3.0,1.0,85641601.0,-765.0,-2929.0,-682.0,0.0,14.85,0.0,0.0,-2.89,0.0
3.0,1.0,85654296.0,-782.0,-2947.0,-686.0,0.0,14.85,0.0,0.0,-2.89,0.0
3.0,1.0,85666992.0,-741.0,-2935.0,-712.0,0.0,14.85,0.0,0.0,-2.89,0.0
3.0,1.0,85679687.0,-783.0,-2941.0,-681.0,0.0,14.85,0.0,0.0,-2.89,0.0
3.0,1.0,85692382.0,-762.0,-2953.0,-700.0,0.0,14.85,0.0,0.0,-2.89,0.0
3.0,1.0,85705078.0,-777.0,-2943.0,-690.0,0.0,14.85,0.0,0.0,-2.89,0.0
3.0,1.0,85717773.0,-764.0,-2940.0,-692.0,0.0,14.85,0.0,0.0,-2.89,0.0
3.0,1.0,85730468.0,-757.0,-2944.0,-706.0,0.0,14.85,0.0,0.0,-2.89,0.0
3.0,1.0,85743164.0,-761.0,-2926.0,-740.0,0.0,14.85,0.0,0.0,-2.89,0.0
3.0,1.0,85755859.0,-771.0,-2930.0,-727.0,0.0,14.85,0.0,0.0,-2.89,0.0
3.0,1.0,85768554.0,-789.0,-2933.0,-703.0,0.0,14.85,0.0,0.0,-2.89,0.0
3.0,1.0,85781250.0,-751.0,-2934.0,-736.0,0.0,14.85,0.0,0.0,-2.89,0.0
3.0,1.0,85793945.0,-751.0,-2940.0,-724.0,0.0,14.85,0.0,0.0,-2.89,0.0
3.0,1.0,85806640.0,-769.0,-2917.0,-697.0,0.0,14.85,0.0,0.0,-2.89,0.0
3.0,1.0,85819335.0,-753.0,-2931.0,-734.0,0.0,14.85,0.0,0.0,-2.89,0.0
3.0,1.0,85832031.0,-755.0,-2949.0,-761.0,0.0,14.85,0.0,0.0,-2.89,0.0
3.0,1.0,85844726.0,-754.0,-2927.0,-725.0,0.0,14.85,0.0,0.0,-2.89,0.0
3.0,1.0,85857421.0,-758.0,-2967.0,-725.0,0.0,14.85,0.0,0.0,-2.89,0.0
3.0,1.0,85871093.0,-746.0,-2946.0,-759.0,0.0,14.85,0.0,0.0,-2.89,0.0
3.0,1.0,85882812.0,-762.0,-2935.0,-728.0,0.0,14.85,0.0,0.0,-2.89,0.0
3.0,1.0,85895507.0,-749.0,-2930.0,-720.0,0.0,14.85,0.0,0.0,-2.89,0.0
3.0,1.0,85908203.0,-768.0,-2922.0,-695.0,0.0,14.85,0.0,0.0,-2.89,0.0
3.0,1.0,85920898.0,-762.0,-2956.0,-680.0,0.0,14.85,0.0,0.0,-2.89,0.0
3.0,1.0,85933593.0,-772.0,-2923.0,-725.0,0.0,14.85,0.0,0.0,-2.89,0.0
3.0,1.0,85946289.0,-767.0,-2949.0,-704.0,0.0,14.85,0.0,0.0,-2.89,0.0
3.0,1.0,85958984.0,-772.0,-2912.0,-691.0,0.0,14.85,0.0,0.0,-2.89,0.0
3.0,1.0,85971679.0,-768.0,-2898.0,-681.0,0.0,14.85,0.0,0.0,-2.89,0.0
3.0,1.0,85984375.0,-769.0,-2936.0,-693.0,0.0,14.85,0.0,0.0,-2.89,0.0
3.0,1.0,85997070.0,-757.0,-2938.0,-669.0,0.0,14.85,0.0,0.0,-2.89,0.0
3.0,1.0,86009765.0,-790.0,-2944.0,-701.0,0.0,14.85,0.0,0.0,-2.89,0.0
3.0,1.0,86022460.0,-789.0,-2945.0,-688.0,0.0,14.85,0.0,0.0,-2.89,0.0
3.0,1.0,86035156.0,-788.0,-2920.0,-655.0,0.0,14.85,0.0,0.0,-2.89,0.0
3.0,1.0,86047851.0,-755.0,-2905.0,-649.0,0.0,14.85,0.0,0.0,-2.89,0.0
3.0,1.0,86060546.0,-745.0,-2935.0,-665.0,0.0,14.85,0.0,0.0,-2.89,0.0
3.0,1.0,86073242.0,-753.0,-2947.0,-692.0,0.0,14.85,0.0,0.0,-2.89,0.0
3.0,1.0,86085937.0,-756.0,-2941.0,-719.0,0.0,14.85,0.0,0.0,-2.89,0.0
3.0,1.0,86098632.0,-749.0,-2945.0,-732.0,0.0,14.85,0.0,0.0,-2.89,0.0
3.0,1.0,86111328.0,-771.0,-2933.0,-699.0,0.0,14.85,0.0,0.0,-2.89,0.0
3.0,1.0,86124023.0,-774.0,-2922.0,-718.0,0.0,14.85,0.0,0.0,-2.89,0.0
3.0,1.0,86136718.0,-774.0,-2954.0,-653.0,0.0,14.85,0.0,0.0,-2.89,0.0
3.0,1.0,86149414.0,-753.0,-2947.0,-646.0,0.0,14.85,0.0,0.0,-2.89,0.0
3.0,1.0,86162109.0,-764.0,-2931.0,-649.0,0.0,14.85,0.0,0.0,-2.89,0.0
3.0,1.0,86174804.0,-774.0,-2940.0,-629.0,0.0,14.85,0.0,0.0,-2.89,0.0
3.0,1.0,86187500.0,-775.0,-2913.0,-645.0,0.0,14.85,0.0,0.0,-2.89,0.0
3.0,1.0,86200195.0,-785.0,-2948.0,-643.0,0.0,14.85,0.0,0.0,-2.89,0.0
3.0,1.0,86212890.0,-779.0,-2922.0,-680.0,0.0,14.85,0.0,0.0,-2.89,0.0
3.0,1.0,86225585.0,-777.0,-2943.0,-659.0,0.0,14.85,0.0,0.0,-2.89,0.0
3.0,1.0,86238281.0,-775.0,-2949.0,-643.0,0.0,14.85,0.0,0.0,-2.89,0.0
3.0,1.0,86250976.0,-792.0,-2945.0,-686.0,0.0,14.85,0.0,0.0,-2.89,0.0
3.0,1.0,86263671.0,-796.0,-2941.0,-663.0,0.0,14.85,0.0,0.0,-2.89,0.0
3.0,1.0,86276367.0,-775.0,-2922.0,-681.0,0.0,14.85,0.0,0.0,-2.89,0.0
3.0,1.0,86289062.0,-767.0,-2921.0,-655.0,0.0,14.85,0.0,0.0,-2.89,0.0
3.0,1.0,86301757.0,-768.0,-2912.0,-671.0,0.0,14.85,0.0,0.0,-2.89,0.0
3.0,1.0,86314453.0,-753.0,-2883.0,-667.0,0.0,14.85,0.0,0.0,-2.89,0.0
3.0,1.0,86327148.0,-753.0,-2914.0,-673.0,0.0,14.85,0.0,0.0,-2.89,0.0
3.0,1.0,86339843.0,-761.0,-2906.0,-660.0,0.0,14.85,0.0,0.0,-2.89,0.0
3.0,1.0,86352539.0,-750.0,-2921.0,-700.0,0.0,14.85,0.0,0.0,-2.89,0.0
3.0,1.0,86365234.0,-782.0,-2947.0,-701.0,0.0,14.85,0.0,0.0,-2.89,0.0
3.0,1.0,86377929.0,-769.0,-2948.0,-727.0,0.0,14.85,0.0,0.0,-2.89,0.0
3.0,1.0,86390625.0,-771.0,-2906.0,-643.0,0.0,14.85,0.0,0.0,-2.89,0.0
3.0,1.0,86403320.0,-747.0,-2922.0,-690.0,0.0,14.85,0.0,0.0,-2.89,0.0
3.0,1.0,86416015.0,-745.0,-2919.0,-678.0,0.0,14.85,0.0,0.0,-2.89,0.0
3.0,1.0,86428710.0,-796.0,-2908.0,-728.0,0.0,14.85,0.0,0.0,-2.89,0.0
3.0,1.0,86441406.0,-790.0,-2936.0,-705.0,0.0,14.85,0.0,0.0,-2.89,0.0
3.0,1.0,86454101.0,-742.0,-2952.0,-651.0,0.0,14.85,0.0,0.0,-2.89,0.0
3.0,1.0,86466796.0,-761.0,-2929.0,-682.0,0.0,14.85,0.0,0.0,-2.89,0.0
3.0,1.0,86479492.0,-758.0,-2901.0,-687.0,0.0,14.85,0.0,0.0,-2.89,0.0
3.0,1.0,86492187.0,-759.0,-2933.0,-726.0,0.0,14.85,0.0,0.0,-2.89,0.0
3.0,1.0,86504882.0,-763.0,-2929.0,-678.0,0.0,14.85,0.0,0.0,-2.89,0.0
3.0,1.0,86517578.0,-761.0,-2912.0,-740.0,0.0,14.85,0.0,0.0,-2.89,0.0
3.0,1.0,86530273.0,-727.0,-2935.0,-683.0,0.0,14.85,0.0,0.0,-2.89,0.0
3.0,1.0,86542968.0,-740.0,-2921.0,-730.0,0.0,14.85,0.0,0.0,-2.89,0.0
3.0,1.0,86555664.0,-736.0,-2932.0,-692.0,0.0,14.85,0.0,0.0,-2.89,0.0
3.0,1.0,86568359.0,-723.0,-2956.0,-688.0,0.0,14.85,0.0,0.0,-2.89,0.0
3.0,1.0,86581054.0,-719.0,-2963.0,-694.0,0.0,14.85,0.0,0.0,-2.89,0.0
3.0,1.0,86593750.0,-738.0,-2940.0,-725.0,0.0,14.85,0.0,0.0,-2.89,0.0
3.0,1.0,86606445.0,-734.0,-2954.0,-696.0,0.0,14.85,0.0,0.0,-2.89,0.0
3.0,1.0,86619140.0,-762.0,-2936.0,-704.0,0.0,14.85,0.0,0.0,-2.89,0.0
3.0,1.0,86631835.0,-749.0,-2908.0,-689.0,0.0,14.85,0.0,0.0,-2.89,0.0
3.0,1.0,86644531.0,-751.0,-2892.0,-706.0,0.0,14.85,0.0,0.0,-2.89,0.0
3.0,1.0,86657226.0,-752.0,-2904.0,-668.0,0.0,14.85,0.0,0.0,-2.89,0.0
3.0,1.0,86669921.0,-759.0,-2891.0,-727.0,0.0,14.85,0.0,0.0,-2.89,0.0
3.0,1.0,86683593.0,-737.0,-2910.0,-670.0,0.0,14.85,0.0,0.0,-2.89,0.0
3.0,1.0,86695312.0,-748.0,-2924.0,-736.0,0.0,14.85,0.0,0.0,-2.89,0.0
3.0,1.0,86708007.0,-761.0,-2923.0,-715.0,0.0,14.85,0.0,0.0,-2.89,0.0
3.0,1.0,86720703.0,-732.0,-2930.0,-737.0,0.0,14.85,0.0,0.0,-2.89,0.0
3.0,1.0,86733398.0,-732.0,-2947.0,-732.0,0.0,14.85,0.0,0.0,-2.89,0.0
3.0,1.0,86746093.0,-724.0,-2956.0,-730.0,0.0,14.85,0.0,0.0,-2.89,0.0
3.0,1.0,86758789.0,-745.0,-2930.0,-708.0,0.0,14.85,0.0,0.0,-2.89,0.0
3.0,1.0,86771484.0,-761.0,-2973.0,-665.0,0.0,14.85,0.0,0.0,-2.89,0.0
3.0,1.0,86784179.0,-749.0,-2947.0,-677.0,0.0,14.85,0.0,0.0,-2.89,0.0
3.0,1.0,86796875.0,-736.0,-2949.0,-694.0,0.0,14.85,0.0,0.0,-2.89,0.0
3.0,1.0,86809570.0,-746.0,-2946.0,-700.0,0.0,14.85,0.0,0.0,-2.89,0.0
3.0,1.0,86822265.0,-740.0,-2945.0,-699.0,0.0,14.85,0.0,0.0,-2.89,0.0
3.0,1.0,86834960.0,-741.0,-2957.0,-681.0,0.0,14.85,0.0,0.0,-2.89,0.0
3.0,1.0,86847656.0,-706.0,-2943.0,-703.0,0.0,14.85,0.0,0.0,-2.89,0.0
3.0,1.0,86860351.0,-742.0,-2941.0,-705.0,0.0,14.85,0.0,0.0,-2.89,0.0
3.0,1.0,86873046.0,-742.0,-2937.0,-642.0,0.0,14.85,0.0,0.0,-2.89,0.0
3.0,1.0,86885742.0,-731.0,-2928.0,-714.0,0.0,14.85,0.0,0.0,-2.89,0.0
3.0,1.0,86898437.0,-719.0,-2917.0,-689.0,0.0,14.85,0.0,0.0,-2.89,0.0
3.0,1.0,86911132.0,-709.0,-2944.0,-677.0,0.0,14.85,0.0,0.0,-2.89,0.0
3.0,1.0,86923828.0,-711.0,-2957.0,-666.0,0.0,14.85,0.0,0.0,-2.89,0.0
3.0,1.0,86936523.0,-732.0,-2939.0,-698.0,0.0,14.85,0.0,0.0,-2.89,0.0
3.0,1.0,86949218.0,-705.0,-2949.0,-648.0,0.0,14.85,0.0,0.0,-2.89,0.0
3.0,1.0,86961914.0,-733.0,-2927.0,-694.0,0.0,14.85,0.0,0.0,-2.89,0.0
3.0,1.0,86974609.0,-711.0,-2926.0,-728.0,0.0,14.85,0.0,0.0,-2.89,0.0
3.0,1.0,86987304.0,-715.0,-2920.0,-692.0,0.0,14.85,0.0,0.0,-2.89,0.0
3.0,1.0,87000000.0,-738.0,-2932.0,-663.0,0.0,14.85,0.0,0.0,-2.89,0.0
3.0,1.0,87012695.0,-745.0,-2937.0,-682.0,0.0,14.85,0.0,0.0,-2.89,0.0
3.0,1.0,87025390.0,-734.0,-2967.0,-707.0,0.0,14.85,0.0,0.0,-2.89,0.0
3.0,1.0,87038085.0,-741.0,-2922.0,-710.0,0.0,14.85,0.0,0.0,-2.89,0.0
3.0,1.0,87050781.0,-719.0,-2929.0,-715.0,0.0,14.85,0.0,0.0,-2.89,0.0
3.0,1.0,87063476.0,-712.0,-2921.0,-753.0,0.0,14.85,0.0,0.0,-2.89,0.0
3.0,1.0,87076171.0,-709.0,-2938.0,-699.0,0.0,14.85,0.0,0.0,-2.89,0.0
3.0,1.0,87088867.0,-746.0,-2943.0,-688.0,0.0,14.85,0.0,0.0,-2.89,0.0
3.0,1.0,87101562.0,-754.0,-2926.0,-730.0,0.0,14.85,0.0,0.0,-2.89,0.0
3.0,1.0,87114257.0,-765.0,-2935.0,-748.0,0.0,14.85,0.0,0.0,-2.89,0.0
3.0,1.0,87126953.0,-732.0,-2926.0,-705.0,0.0,14.85,0.0,0.0,-2.89,0.0
3.0,1.0,87139648.0,-731.0,-2916.0,-729.0,0.0,14.85,0.0,0.0,-2.89,0.0
3.0,1.0,87152343.0,-723.0,-2948.0,-686.0,0.0,14.85,0.0,0.0,-2.89,0.0
3.0,1.0,87165039.0,-746.0,-2941.0,-717.0,0.0,14.85,0.0,0.0,-2.89,0.0
3.0,1.0,87177734.0,-748.0,-2943.0,-700.0,0.0,14.85,0.0,0.0,-2.89,0.0
3.0,1.0,87190429.0,-731.0,-2919.0,-732.0,0.0,14.85,0.0,0.0,-2.89,0.0
3.0,1.0,87203125.0,-711.0,-2936.0,-748.0,0.0,14.85,0.0,0.0,-2.89,0.0
3.0,1.0,87215820.0,-677.0,-2928.0,-741.0,0.0,14.85,0.0,0.0,-2.89,0.0
3.0,1.0,87228515.0,-706.0,-2900.0,-770.0,0.0,14.85,0.0,0.0,-2.89,0.0
3.0,1.0,87241210.0,-712.0,-2926.0,-771.0,0.0,14.85,0.0,0.0,-2.89,0.0
3.0,1.0,87253906.0,-734.0,-2901.0,-722.0,0.0,14.85,0.0,0.0,-2.89,0.0
3.0,1.0,87266601.0,-747.0,-2926.0,-728.0,0.0,14.85,0.0,0.0,-2.89,0.0
3.0,1.0,87279296.0,-751.0,-2932.0,-706.0,0.0,14.85,0.0,0.0,-2.89,0.0
3.0,1.0,87291992.0,-728.0,-2914.0,-720.0,0.0,14.85,0.0,0.0,-2.89,0.0
3.0,1.0,87304687.0,-754.0,-2920.0,-671.0,0.0,14.85,0.0,0.0,-2.89,0.0
3.0,1.0,87317382.0,-742.0,-2918.0,-698.0,0.0,14.85,0.0,0.0,-2.89,0.0
3.0,1.0,87330078.0,-751.0,-2915.0,-692.0,0.0,14.85,0.0,0.0,-2.89,0.0
3.0,1.0,87343750.0,-762.0,-2914.0,-697.0,0.0,14.85,0.0,0.0,-2.89,0.0
3.0,1.0,87355468.0,-759.0,-2927.0,-715.0,0.0,14.85,0.0,0.0,-2.89,0.0
3.0,1.0,87368164.0,-749.0,-2925.0,-705.0,0.0,14.85,0.0,0.0,-2.89,0.0
3.0,1.0,87380859.0,-725.0,-2919.0,-694.0,0.0,14.85,0.0,0.0,-2.89,0.0
3.0,1.0,87393554.0,-753.0,-2915.0,-686.0,0.0,14.85,0.0,0.0,-2.89,0.0
3.0,1.0,87406250.0,-767.0,-2936.0,-657.0,0.0,14.85,0.0,0.0,-2.89,0.0
3.0,1.0,87418945.0,-760.0,-2931.0,-686.0,0.0,14.85,0.0,0.0,-2.89,0.0
3.0,1.0,87431640.0,-738.0,-2929.0,-726.0,0.0,14.85,0.0,0.0,-2.89,0.0
3.0,1.0,87444335.0,-754.0,-2940.0,-707.0,0.0,14.85,0.0,0.0,-2.89,0.0
3.0,1.0,87457031.0,-697.0,-2923.0,-672.0,0.0,14.85,0.0,0.0,-2.89,0.0
3.0,1.0,87469726.0,-747.0,-2921.0,-645.0,0.0,14.85,0.0,0.0,-2.89,0.0
3.0,1.0,87482421.0,-744.0,-2925.0,-697.0,0.0,14.85,0.0,0.0,-2.89,0.0
3.0,1.0,87495117.0,-761.0,-2902.0,-695.0,0.0,14.85,0.0,0.0,-2.89,0.0
3.0,1.0,87507812.0,-760.0,-2910.0,-732.0,0.0,14.85,0.0,0.0,-2.89,0.0
3.0,1.0,87520507.0,-773.0,-2924.0,-762.0,0.0,14.85,0.0,0.0,-2.89,0.0
3.0,1.0,87533203.0,-743.0,-2930.0,-686.0,0.0,14.85,0.0,0.0,-2.89,0.0
3.0,1.0,87545898.0,-790.0,-2935.0,-711.0,0.0,14.85,0.0,0.0,-2.89,0.0
3.0,1.0,87558593.0,-782.0,-2933.0,-728.0,0.0,14.85,0.0,0.0,-2.89,0.0
3.0,1.0,87571289.0,-766.0,-2938.0,-746.0,0.0,14.85,0.0,0.0,-2.89,0.0
3.0,1.0,87583984.0,-750.0,-2947.0,-698.0,0.0,14.85,0.0,0.0,-2.89,0.0
3.0,1.0,87596679.0,-771.0,-2937.0,-690.0,0.0,14.85,0.0,0.0,-2.89,0.0
3.0,1.0,87609375.0,-797.0,-2955.0,-739.0,0.0,14.85,0.0,0.0,-2.89,0.0
3.0,1.0,87622070.0,-769.0,-2969.0,-725.0,0.0,14.85,0.0,0.0,-2.89,0.0
3.0,1.0,87634765.0,-772.0,-2935.0,-737.0,0.0,14.85,0.0,0.0,-2.89,0.0
3.0,1.0,87647460.0,-787.0,-2934.0,-694.0,0.0,14.85,0.0,0.0,-2.89,0.0
3.0,1.0,87660156.0,-761.0,-2941.0,-714.0,0.0,14.85,0.0,0.0,-2.89,0.0
3.0,1.0,87672851.0,-759.0,-2923.0,-687.0,0.0,14.85,0.0,0.0,-2.89,0.0
3.0,1.0,87685546.0,-775.0,-2940.0,-738.0,0.0,14.85,0.0,0.0,-2.89,0.0
3.0,1.0,87698242.0,-762.0,-2920.0,-726.0,0.0,14.85,0.0,0.0,-2.89,0.0
3.0,1.0,87710937.0,-761.0,-2939.0,-718.0,0.0,14.85,0.0,0.0,-2.89,0.0
3.0,1.0,87723632.0,-781.0,-2940.0,-715.0,0.0,14.85,0.0,0.0,-2.89,0.0
3.0,1.0,87736328.0,-789.0,-2943.0,-738.0,0.0,14.85,0.0,0.0,-2.89,0.0
3.0,1.0,87749023.0,-773.0,-2923.0,-709.0,0.0,14.85,0.0,0.0,-2.89,0.0
3.0,1.0,87761718.0,-747.0,-2938.0,-697.0,0.0,14.85,0.0,0.0,-2.89,0.0
3.0,1.0,87774414.0,-734.0,-2917.0,-688.0,0.0,14.85,0.0,0.0,-2.89,0.0
3.0,1.0,87787109.0,-762.0,-2939.0,-706.0,0.0,14.85,0.0,0.0,-2.89,0.0
3.0,1.0,87799804.0,-771.0,-2932.0,-659.0,0.0,14.85,0.0,0.0,-2.89,0.0
3.0,1.0,87812500.0,-752.0,-2958.0,-688.0,0.0,14.85,0.0,0.0,-2.89,0.0
3.0,1.0,87825195.0,-740.0,-2948.0,-706.0,0.0,14.85,0.0,0.0,-2.89,0.0
3.0,1.0,87837890.0,-775.0,-2946.0,-740.0,0.0,14.85,0.0,0.0,-2.89,0.0
3.0,1.0,87850585.0,-762.0,-2925.0,-710.0,0.0,14.85,0.0,0.0,-2.89,0.0
3.0,1.0,87863281.0,-730.0,-2912.0,-712.0,0.0,14.85,0.0,0.0,-2.89,0.0
3.0,1.0,87875976.0,-759.0,-2915.0,-690.0,0.0,14.85,0.0,0.0,-2.89,0.0
3.0,1.0,87888671.0,-771.0,-2954.0,-699.0,0.0,14.85,0.0,0.0,-2.89,0.0
3.0,1.0,87901367.0,-773.0,-2931.0,-692.0,0.0,14.85,0.0,0.0,-2.89,0.0
3.0,1.0,87914062.0,-754.0,-2953.0,-712.0,0.0,14.85,0.0,0.0,-2.89,0.0
3.0,1.0,87926757.0,-757.0,-2945.0,-731.0,0.0,14.85,0.0,0.0,-2.89,0.0
3.0,1.0,87939453.0,-767.0,-2915.0,-668.0,0.0,14.85,0.0,0.0,-2.89,0.0
3.0,1.0,87952148.0,-722.0,-2916.0,-724.0,0.0,14.85,0.0,0.0,-2.89,0.0
3.0,1.0,87964843.0,-751.0,-2924.0,-694.0,0.0,14.85,0.0,0.0,-2.89,0.0
3.0,1.0,87977539.0,-754.0,-2947.0,-729.0,0.0,14.85,0.0,0.0,-2.89,0.0
3.0,1.0,87990234.0,-770.0,-2936.0,-708.0,0.0,14.85,0.0,0.0,-2.89,0.0
3.0,1.0,88002929.0,-723.0,-2938.0,-712.0,0.0,14.85,0.0,0.0,-2.89,0.0
3.0,1.0,88015625.0,-754.0,-2902.0,-741.0,0.0,14.85,0.0,0.0,-2.89,0.0
3.0,1.0,88028320.0,-745.0,-2916.0,-723.0,0.0,14.85,0.0,0.0,-2.89,0.0
3.0,1.0,88041015.0,-748.0,-2903.0,-690.0,0.0,14.85,0.0,0.0,-2.89,0.0
3.0,1.0,88053710.0,-756.0,-2902.0,-700.0,0.0,14.85,0.0,0.0,-2.89,0.0
3.0,1.0,88066406.0,-780.0,-2920.0,-676.0,0.0,14.85,0.0,0.0,-2.89,0.0
3.0,1.0,88079101.0,-787.0,-2963.0,-705.0,0.0,14.85,0.0,0.0,-2.89,0.0
3.0,1.0,88092773.0,-771.0,-2931.0,-746.0,0.0,14.85,0.0,0.0,-2.89,0.0
3.0,1.0,88104492.0,-786.0,-2929.0,-692.0,0.0,14.85,0.0,0.0,-2.89,0.0
3.0,1.0,88117187.0,-765.0,-2928.0,-697.0,0.0,14.85,0.0,0.0,-2.89,0.0
3.0,1.0,88129882.0,-779.0,-2927.0,-689.0,0.0,14.85,0.0,0.0,-2.89,0.0
3.0,1.0,88142578.0,-784.0,-2921.0,-707.0,0.0,14.85,0.0,0.0,-2.89,0.0
3.0,1.0,88155273.0,-784.0,-2906.0,-699.0,0.0,14.85,0.0,0.0,-2.89,0.0
3.0,1.0,88167968.0,-776.0,-2955.0,-706.0,0.0,14.85,0.0,0.0,-2.89,0.0
3.0,1.0,88180664.0,-797.0,-2930.0,-702.0,0.0,14.85,0.0,0.0,-2.89,0.0
3.0,1.0,88193359.0,-776.0,-2936.0,-730.0,0.0,14.85,0.0,0.0,-2.89,0.0
3.0,1.0,88206054.0,-735.0,-2940.0,-751.0,0.0,14.85,0.0,0.0,-2.89,0.0
3.0,1.0,88218750.0,-733.0,-2968.0,-763.0,0.0,14.85,0.0,0.0,-2.89,0.0
3.0,1.0,88231445.0,-770.0,-2958.0,-734.0,0.0,14.85,0.0,0.0,-2.89,0.0
3.0,1.0,88244140.0,-771.0,-2955.0,-722.0,0.0,14.85,0.0,0.0,-2.89,0.0
3.0,1.0,88256835.0,-760.0,-2951.0,-716.0,0.0,14.85,0.0,0.0,-2.89,0.0
3.0,1.0,88269531.0,-772.0,-2919.0,-686.0,0.0,14.85,0.0,0.0,-2.89,0.0
3.0,1.0,88282226.0,-783.0,-2960.0,-675.0,0.0,14.85,0.0,0.0,-2.89,0.0
3.0,1.0,88294921.0,-784.0,-2922.0,-740.0,0.0,14.85,0.0,0.0,-2.89,0.0
3.0,1.0,88307617.0,-762.0,-2949.0,-676.0,0.0,14.85,0.0,0.0,-2.89,0.0
3.0,1.0,88320312.0,-789.0,-2920.0,-645.0,0.0,14.85,0.0,0.0,-2.89,0.0
3.0,1.0,88333007.0,-765.0,-2912.0,-662.0,0.0,14.85,0.0,0.0,-2.89,0.0
3.0,1.0,88345703.0,-734.0,-2897.0,-690.0,0.0,14.85,0.0,0.0,-2.89,0.0
3.0,1.0,88358398.0,-749.0,-2916.0,-682.0,0.0,14.85,0.0,0.0,-2.89,0.0
3.0,1.0,88371093.0,-753.0,-2913.0,-697.0,0.0,14.85,0.0,0.0,-2.89,0.0
3.0,1.0,88383789.0,-757.0,-2925.0,-686.0,0.0,14.85,0.0,0.0,-2.89,0.0
3.0,1.0,88396484.0,-731.0,-2910.0,-670.0,0.0,14.85,0.0,0.0,-2.89,0.0
3.0,1.0,88409179.0,-749.0,-2928.0,-688.0,0.0,14.85,0.0,0.0,-2.89,0.0
3.0,1.0,88422851.0,-743.0,-2913.0,-665.0,0.0,14.85,0.0,0.0,-2.89,0.0
3.0,1.0,88434570.0,-736.0,-2942.0,-663.0,0.0,14.85,0.0,0.0,-2.89,0.0
3.0,1.0,88447265.0,-718.0,-2941.0,-694.0,0.0,14.85,0.0,0.0,-2.89,0.0
3.0,1.0,88459960.0,-720.0,-2898.0,-716.0,0.0,14.85,0.0,0.0,-2.89,0.0
3.0,1.0,88472656.0,-761.0,-2926.0,-717.0,0.0,14.85,0.0,0.0,-2.89,0.0
3.0,1.0,88485351.0,-740.0,-2910.0,-732.0,0.0,14.85,0.0,0.0,-2.89,0.0
3.0,1.0,88498046.0,-760.0,-2935.0,-732.0,0.0,14.85,0.0,0.0,-2.89,0.0
3.0,1.0,88510742.0,-727.0,-2933.0,-694.0,0.0,14.85,0.0,0.0,-2.89,0.0
3.0,1.0,88523437.0,-754.0,-2941.0,-685.0,0.0,14.85,0.0,0.0,-2.89,0.0
3.0,1.0,88536132.0,-725.0,-2909.0,-714.0,0.0,14.85,0.0,0.0,-2.89,0.0
3.0,1.0,88548828.0,-794.0,-2895.0,-675.0,0.0,14.85,0.0,0.0,-2.89,0.0
3.0,1.0,88561523.0,-768.0,-2931.0,-693.0,0.0,14.85,0.0,0.0,-2.89,0.0
3.0,1.0,88574218.0,-737.0,-2932.0,-710.0,0.0,14.85,0.0,0.0,-2.89,0.0
3.0,1.0,88586914.0,-779.0,-2914.0,-676.0,0.0,14.85,0.0,0.0,-2.89,0.0
3.0,1.0,88599609.0,-759.0,-2931.0,-722.0,0.0,14.85,0.0,0.0,-2.89,0.0
3.0,1.0,88612304.0,-748.0,-2951.0,-702.0,0.0,14.85,0.0,0.0,-2.89,0.0
3.0,1.0,88625000.0,-732.0,-2926.0,-720.0,0.0,14.85,0.0,0.0,-2.89,0.0
3.0,1.0,88637695.0,-735.0,-2903.0,-706.0,0.0,14.85,0.0,0.0,-2.89,0.0
3.0,1.0,88650390.0,-740.0,-2937.0,-651.0,0.0,14.85,0.0,0.0,-2.89,0.0
3.0,1.0,88663085.0,-774.0,-2950.0,-728.0,0.0,14.85,0.0,0.0,-2.89,0.0
3.0,1.0,88675781.0,-755.0,-2937.0,-645.0,0.0,14.85,0.0,0.0,-2.89,0.0
3.0,1.0,88688476.0,-761.0,-2937.0,-686.0,0.0,14.85,0.0,0.0,-2.89,0.0
3.0,1.0,88701171.0,-753.0,-2931.0,-652.0,0.0,14.85,0.0,0.0,-2.89,0.0
3.0,1.0,88713867.0,-761.0,-2938.0,-684.0,0.0,14.85,0.0,0.0,-2.89,0.0
3.0,1.0,88726562.0,-769.0,-2946.0,-686.0,0.0,14.85,0.0,0.0,-2.89,0.0
3.0,1.0,88739257.0,-751.0,-2936.0,-653.0,0.0,14.85,0.0,0.0,-2.89,0.0
3.0,1.0,88751953.0,-760.0,-2947.0,-675.0,0.0,14.85,0.0,0.0,-2.89,0.0
3.0,1.0,88764648.0,-777.0,-2914.0,-664.0,0.0,14.85,0.0,0.0,-2.89,0.0
3.0,1.0,88777343.0,-760.0,-2964.0,-697.0,0.0,14.85,0.0,0.0,-2.89,0.0
3.0,1.0,88790039.0,-767.0,-2930.0,-686.0,0.0,14.85,0.0,0.0,-2.89,0.0
3.0,1.0,88802734.0,-761.0,-2953.0,-686.0,0.0,14.85,0.0,0.0,-2.89,0.0
3.0,1.0,88815429.0,-752.0,-2959.0,-721.0,0.0,14.85,0.0,0.0,-2.89,0.0
3.0,1.0,88828125.0,-740.0,-2936.0,-709.0,0.0,14.85,0.0,0.0,-2.89,0.0
3.0,1.0,88840820.0,-758.0,-2942.0,-728.0,0.0,14.85,0.0,0.0,-2.89,0.0
3.0,1.0,88853515.0,-773.0,-2948.0,-701.0,0.0,14.85,0.0,0.0,-2.89,0.0
3.0,1.0,88866210.0,-734.0,-2938.0,-695.0,0.0,14.85,0.0,0.0,-2.89,0.0
3.0,1.0,88878906.0,-744.0,-2938.0,-703.0,0.0,14.85,0.0,0.0,-2.89,0.0
3.0,1.0,88891601.0,-763.0,-2933.0,-744.0,0.0,14.85,0.0,0.0,-2.89,0.0
3.0,1.0,88904296.0,-750.0,-2899.0,-637.0,0.0,14.85,0.0,0.0,-2.89,0.0
3.0,1.0,88916992.0,-758.0,-2911.0,-652.0,0.0,14.85,0.0,0.0,-2.89,0.0
3.0,1.0,88929687.0,-744.0,-2936.0,-681.0,0.0,14.85,0.0,0.0,-2.89,0.0
3.0,1.0,88942382.0,-779.0,-2946.0,-728.0,0.0,14.85,0.0,0.0,-2.89,0.0
3.0,1.0,88955078.0,-767.0,-2915.0,-699.0,0.0,14.85,0.0,0.0,-2.89,0.0
3.0,1.0,88967773.0,-735.0,-2943.0,-701.0,0.0,14.85,0.0,0.0,-2.89,0.0
3.0,1.0,88980468.0,-740.0,-2920.0,-701.0,0.0,14.85,0.0,0.0,-2.89,0.0
3.0,1.0,88993164.0,-741.0,-2914.0,-719.0,0.0,14.85,0.0,0.0,-2.89,0.0
3.0,1.0,89005859.0,-754.0,-2934.0,-654.0,0.0,14.85,0.0,0.0,-2.89,0.0
3.0,1.0,89018554.0,-757.0,-2944.0,-653.0,0.0,14.85,0.0,0.0,-2.89,0.0
3.0,1.0,89031250.0,-799.0,-2928.0,-678.0,0.0,14.85,0.0,0.0,-2.89,0.0
3.0,1.0,89043945.0,-772.0,-2928.0,-660.0,0.0,14.85,0.0,0.0,-2.89,0.0
3.0,1.0,89056640.0,-771.0,-2948.0,-664.0,0.0,14.85,0.0,0.0,-2.89,0.0
3.0,1.0,89069335.0,-737.0,-2949.0,-657.0,0.0,14.85,0.0,0.0,-2.89,0.0
3.0,1.0,89082031.0,-750.0,-2915.0,-617.0,0.0,14.85,0.0,0.0,-2.89,0.0
3.0,1.0,89094726.0,-765.0,-2916.0,-649.0,0.0,14.85,0.0,0.0,-2.89,0.0
3.0,1.0,89107421.0,-770.0,-2904.0,-689.0,0.0,14.85,0.0,0.0,-2.89,0.0
3.0,1.0,89120117.0,-776.0,-2930.0,-708.0,0.0,14.85,0.0,0.0,-2.89,0.0
3.0,1.0,89132812.0,-771.0,-2984.0,-661.0,0.0,14.85,0.0,0.0,-2.89,0.0
3.0,1.0,89145507.0,-793.0,-2951.0,-682.0,0.0,14.85,0.0,0.0,-2.89,0.0
3.0,1.0,89158203.0,-766.0,-2957.0,-678.0,0.0,14.85,0.0,0.0,-2.89,0.0
3.0,1.0,89170898.0,-761.0,-2930.0,-709.0,0.0,14.85,0.0,0.0,-2.89,0.0
3.0,1.0,89183593.0,-780.0,-2944.0,-699.0,0.0,14.85,0.0,0.0,-2.89,0.0
3.0,1.0,89196289.0,-778.0,-2940.0,-671.0,0.0,14.85,0.0,0.0,-2.89,0.0
3.0,1.0,89208984.0,-744.0,-2923.0,-698.0,0.0,14.85,0.0,0.0,-2.89,0.0
3.0,1.0,89221679.0,-768.0,-2943.0,-690.0,0.0,14.85,0.0,0.0,-2.89,0.0
3.0,1.0,89234375.0,-784.0,-2949.0,-707.0,0.0,14.85,0.0,0.0,-2.89,0.0
3.0,1.0,89247070.0,-758.0,-2951.0,-706.0,0.0,14.85,0.0,0.0,-2.89,0.0
3.0,1.0,89259765.0,-777.0,-2929.0,-658.0,0.0,14.85,0.0,0.0,-2.89,0.0
3.0,1.0,89272460.0,-758.0,-2941.0,-674.0,0.0,14.85,0.0,0.0,-2.89,0.0
3.0,1.0,89285156.0,-761.0,-2928.0,-681.0,0.0,14.85,0.0,0.0,-2.89,0.0
3.0,1.0,89297851.0,-768.0,-2946.0,-690.0,0.0,14.85,0.0,0.0,-2.89,0.0
3.0,1.0,89310546.0,-772.0,-2926.0,-706.0,0.0,14.85,0.0,0.0,-2.89,0.0
3.0,1.0,89323242.0,-733.0,-2947.0,-734.0,0.0,14.85,0.0,0.0,-2.89,0.0
3.0,1.0,89335937.0,-765.0,-2927.0,-732.0,0.0,14.85,0.0,0.0,-2.89,0.0
3.0,1.0,89348632.0,-773.0,-2931.0,-735.0,0.0,14.85,0.0,0.0,-2.89,0.0
3.0,1.0,89361328.0,-799.0,-2919.0,-739.0,0.0,14.85,0.0,0.0,-2.89,0.0
3.0,1.0,89374023.0,-762.0,-2909.0,-731.0,0.0,14.85,0.0,0.0,-2.89,0.0
3.0,1.0,89386718.0,-760.0,-2930.0,-694.0,0.0,14.85,0.0,0.0,-2.89,0.0
3.0,1.0,89399414.0,-746.0,-2942.0,-713.0,0.0,14.85,0.0,0.0,-2.89,0.0
3.0,1.0,89412109.0,-743.0,-2951.0,-681.0,0.0,14.85,0.0,0.0,-2.89,0.0
3.0,1.0,89424804.0,-737.0,-2938.0,-698.0,0.0,14.85,0.0,0.0,-2.89,0.0
3.0,1.0,89437500.0,-777.0,-2931.0,-724.0,0.0,14.85,0.0,0.0,-2.89,0.0
3.0,1.0,89450195.0,-764.0,-2930.0,-667.0,0.0,14.85,0.0,0.0,-2.89,0.0
3.0,1.0,89462890.0,-736.0,-2953.0,-688.0,0.0,14.85,0.0,0.0,-2.89,0.0
3.0,1.0,89475585.0,-750.0,-2946.0,-726.0,0.0,14.85,0.0,0.0,-2.89,0.0
3.0,1.0,89488281.0,-742.0,-2945.0,-656.0,0.0,14.85,0.0,0.0,-2.89,0.0
3.0,1.0,89500976.0,-742.0,-2931.0,-662.0,0.0,14.85,0.0,0.0,-2.89,0.0
3.0,1.0,89513671.0,-750.0,-2916.0,-682.0,0.0,14.85,0.0,0.0,-2.89,0.0
3.0,1.0,89526367.0,-711.0,-2927.0,-710.0,0.0,14.85,0.0,0.0,-2.89,0.0
3.0,1.0,89539062.0,-744.0,-2898.0,-679.0,0.0,14.85,0.0,0.0,-2.89,0.0
3.0,1.0,89551757.0,-725.0,-2911.0,-718.0,0.0,14.85,0.0,0.0,-2.89,0.0
3.0,1.0,89564453.0,-756.0,-2938.0,-748.0,0.0,14.85,0.0,0.0,-2.89,0.0
3.0,1.0,89577148.0,-740.0,-2946.0,-723.0,0.0,14.85,0.0,0.0,-2.89,0.0
3.0,1.0,89590820.0,-732.0,-2933.0,-726.0,0.0,14.85,0.0,0.0,-2.89,0.0
3.0,1.0,89602539.0,-723.0,-2941.0,-679.0,0.0,14.85,0.0,0.0,-2.89,0.0
3.0,1.0,89615234.0,-749.0,-2945.0,-687.0,0.0,14.85,0.0,0.0,-2.89,0.0
3.0,1.0,89627929.0,-730.0,-2962.0,-698.0,0.0,14.85,0.0,0.0,-2.89,0.0
3.0,1.0,89640625.0,-761.0,-2912.0,-646.0,0.0,14.85,0.0,0.0,-2.89,0.0
3.0,1.0,89653320.0,-766.0,-2949.0,-684.0,0.0,14.85,0.0,0.0,-2.89,0.0
3.0,1.0,89666015.0,-766.0,-2939.0,-747.0,0.0,14.85,0.0,0.0,-2.89,0.0
3.0,1.0,89678710.0,-743.0,-2974.0,-722.0,0.0,14.85,0.0,0.0,-2.89,0.0
3.0,1.0,89691406.0,-740.0,-2932.0,-672.0,0.0,14.85,0.0,0.0,-2.89,0.0
3.0,1.0,89704101.0,-767.0,-2934.0,-706.0,0.0,14.85,0.0,0.0,-2.89,0.0
3.0,1.0,89716796.0,-738.0,-2900.0,-691.0,0.0,14.85,0.0,0.0,-2.89,0.0
3.0,1.0,89729492.0,-736.0,-2927.0,-679.0,0.0,14.85,0.0,0.0,-2.89,0.0
3.0,1.0,89742187.0,-769.0,-2936.0,-687.0,0.0,14.85,0.0,0.0,-2.89,0.0
3.0,1.0,89754882.0,-755.0,-2937.0,-745.0,0.0,14.85,0.0,0.0,-2.89,0.0
3.0,1.0,89767578.0,-730.0,-2932.0,-708.0,0.0,14.85,0.0,0.0,-2.89,0.0
3.0,1.0,89780273.0,-751.0,-2926.0,-725.0,0.0,14.85,0.0,0.0,-2.89,0.0
3.0,1.0,89792968.0,-725.0,-2983.0,-733.0,0.0,14.85,0.0,0.0,-2.89,0.0
3.0,1.0,89805664.0,-744.0,-2951.0,-651.0,0.0,14.85,0.0,0.0,-2.89,0.0
3.0,1.0,89818359.0,-738.0,-2971.0,-650.0,0.0,14.85,0.0,0.0,-2.89,0.0
3.0,1.0,89831054.0,-766.0,-2931.0,-646.0,0.0,14.85,0.0,0.0,-2.89,0.0
3.0,1.0,89843750.0,-768.0,-2961.0,-721.0,0.0,14.85,0.0,0.0,-2.89,0.0
3.0,1.0,89856445.0,-765.0,-2938.0,-705.0,0.0,14.85,0.0,0.0,-2.89,0.0
3.0,1.0,89869140.0,-757.0,-2970.0,-694.0,0.0,14.85,0.0,0.0,-2.89,0.0
3.0,1.0,89881835.0,-741.0,-2953.0,-709.0,0.0,14.85,0.0,0.0,-2.89,0.0
3.0,1.0,89894531.0,-763.0,-2945.0,-702.0,0.0,14.85,0.0,0.0,-2.89,0.0
3.0,1.0,89907226.0,-760.0,-2981.0,-712.0,0.0,14.85,0.0,0.0,-2.89,0.0
3.0,1.0,89919921.0,-761.0,-2934.0,-679.0,0.0,14.85,0.0,0.0,-2.89,0.0
3.0,1.0,89932617.0,-767.0,-2919.0,-663.0,0.0,14.85,0.0,0.0,-2.89,0.0
3.0,1.0,89945312.0,-770.0,-2930.0,-662.0,0.0,14.85,0.0,0.0,-2.89,0.0
3.0,1.0,89958007.0,-769.0,-2945.0,-686.0,0.0,14.85,0.0,0.0,-2.89,0.0
3.0,1.0,89970703.0,-769.0,-2915.0,-685.0,0.0,14.85,0.0,0.0,-2.89,0.0
3.0,1.0,89983398.0,-769.0,-2896.0,-685.0,0.0,14.85,0.0,0.0,-2.89,0.0
3.0,1.0,89996093.0,-756.0,-2918.0,-696.0,0.0,14.85,0.0,0.0,-2.89,0.0
3.0,1.0,90008789.0,-746.0,-2942.0,-694.0,0.0,14.85,0.0,0.0,-2.89,0.0
3.0,1.0,90021484.0,-773.0,-2930.0,-727.0,0.0,14.85,0.0,0.0,-2.89,0.0
3.0,1.0,90034179.0,-758.0,-2928.0,-712.0,0.0,14.85,0.0,0.0,-2.89,0.0
3.0,1.0,90046875.0,-735.0,-2909.0,-688.0,0.0,14.85,0.0,0.0,-2.89,0.0
3.0,1.0,90059570.0,-771.0,-2943.0,-713.0,0.0,14.85,0.0,0.0,-2.89,0.0
3.0,1.0,90072265.0,-754.0,-2938.0,-685.0,0.0,14.85,0.0,0.0,-2.89,0.0
3.0,1.0,90084960.0,-777.0,-2947.0,-699.0,0.0,14.85,0.0,0.0,-2.89,0.0
3.0,1.0,90097656.0,-770.0,-2954.0,-678.0,0.0,14.85,0.0,0.0,-2.89,0.0
3.0,1.0,90110351.0,-763.0,-2903.0,-696.0,0.0,14.85,0.0,0.0,-2.89,0.0
3.0,1.0,90123046.0,-760.0,-2942.0,-682.0,0.0,14.85,0.0,0.0,-2.89,0.0
3.0,1.0,90135742.0,-755.0,-2925.0,-669.0,0.0,14.85,0.0,0.0,-2.89,0.0
3.0,1.0,90148437.0,-735.0,-2958.0,-718.0,0.0,14.85,0.0,0.0,-2.89,0.0
3.0,1.0,90161132.0,-766.0,-2927.0,-691.0,0.0,14.85,0.0,0.0,-2.89,0.0
3.0,1.0,90173828.0,-766.0,-2961.0,-706.0,0.0,14.85,0.0,0.0,-2.89,0.0
3.0,1.0,90186523.0,-750.0,-2923.0,-715.0,0.0,14.85,0.0,0.0,-2.89,0.0
3.0,1.0,90199218.0,-757.0,-2948.0,-666.0,0.0,14.85,0.0,0.0,-2.89,0.0
3.0,1.0,90211914.0,-768.0,-2927.0,-669.0,0.0,14.85,0.0,0.0,-2.89,0.0
3.0,1.0,90224609.0,-794.0,-2957.0,-634.0,0.0,14.85,0.0,0.0,-2.89,0.0
3.0,1.0,90237304.0,-765.0,-2954.0,-664.0,0.0,14.85,0.0,0.0,-2.89,0.0
3.0,1.0,90250000.0,-772.0,-2930.0,-685.0,0.0,14.85,0.0,0.0,-2.89,0.0
3.0,1.0,90262695.0,-734.0,-2928.0,-664.0,0.0,14.85,0.0,0.0,-2.89,0.0
3.0,1.0,90275390.0,-754.0,-2931.0,-638.0,0.0,14.85,0.0,0.0,-2.89,0.0
3.0,1.0,90288085.0,-734.0,-2935.0,-634.0,0.0,14.85,0.0,0.0,-2.89,0.0
3.0,1.0,90300781.0,-746.0,-2925.0,-660.0,0.0,14.85,0.0,0.0,-2.89,0.0
3.0,1.0,90313476.0,-763.0,-2923.0,-642.0,0.0,14.85,0.0,0.0,-2.89,0.0
3.0,1.0,90326171.0,-753.0,-2914.0,-663.0,0.0,14.85,0.0,0.0,-2.89,0.0
3.0,1.0,90338867.0,-754.0,-2955.0,-692.0,0.0,14.85,0.0,0.0,-2.89,0.0
3.0,1.0,90351562.0,-768.0,-2939.0,-706.0,0.0,14.85,0.0,0.0,-2.89,0.0
3.0,1.0,90364257.0,-761.0,-2901.0,-662.0,0.0,14.85,0.0,0.0,-2.89,0.0
3.0,1.0,90376953.0,-747.0,-2913.0,-659.0,0.0,14.85,0.0,0.0,-2.89,0.0
3.0,1.0,90389648.0,-750.0,-2934.0,-690.0,0.0,14.85,0.0,0.0,-2.89,0.0
3.0,1.0,90402343.0,-763.0,-2936.0,-673.0,0.0,14.85,0.0,0.0,-2.89,0.0
3.0,1.0,90415039.0,-750.0,-2956.0,-682.0,0.0,14.85,0.0,0.0,-2.89,0.0
3.0,1.0,90427734.0,-752.0,-2959.0,-656.0,0.0,14.85,0.0,0.0,-2.89,0.0
3.0,1.0,90440429.0,-731.0,-2943.0,-713.0,0.0,14.85,0.0,0.0,-2.89,0.0
3.0,1.0,90453125.0,-746.0,-2953.0,-675.0,0.0,14.85,0.0,0.0,-2.89,0.0
3.0,1.0,90465820.0,-736.0,-2940.0,-709.0,0.0,14.85,0.0,0.0,-2.89,0.0
3.0,1.0,90478515.0,-770.0,-2933.0,-722.0,0.0,14.85,0.0,0.0,-2.89,0.0
3.0,1.0,90491210.0,-753.0,-2932.0,-728.0,0.0,14.85,0.0,0.0,-2.89,0.0
3.0,1.0,90503906.0,-771.0,-2940.0,-700.0,0.0,14.85,0.0,0.0,-2.89,0.0
3.0,1.0,90516601.0,-744.0,-2919.0,-679.0,0.0,14.85,0.0,0.0,-2.89,0.0
3.0,1.0,90529296.0,-762.0,-2918.0,-710.0,0.0,14.85,0.0,0.0,-2.89,0.0
3.0,1.0,90541992.0,-783.0,-2925.0,-716.0,0.0,14.85,0.0,0.0,-2.89,0.0
3.0,1.0,90554687.0,-775.0,-2930.0,-677.0,0.0,14.85,0.0,0.0,-2.89,0.0
3.0,1.0,90567382.0,-775.0,-2909.0,-644.0,0.0,14.85,0.0,0.0,-2.89,0.0
3.0,1.0,90580078.0,-766.0,-2957.0,-671.0,0.0,14.85,0.0,0.0,-2.89,0.0
3.0,1.0,90592773.0,-785.0,-2915.0,-629.0,0.0,14.85,0.0,0.0,-2.89,0.0
3.0,1.0,90605468.0,-746.0,-2955.0,-685.0,0.0,14.85,0.0,0.0,-2.89,0.0
3.0,1.0,90618164.0,-754.0,-2951.0,-706.0,0.0,14.85,0.0,0.0,-2.89,0.0
3.0,1.0,90630859.0,-732.0,-2937.0,-695.0,0.0,14.85,0.0,0.0,-2.89,0.0
3.0,1.0,90643554.0,-738.0,-2946.0,-697.0,0.0,14.85,0.0,0.0,-2.89,0.0
3.0,1.0,90656250.0,-718.0,-2928.0,-684.0,0.0,14.85,0.0,0.0,-2.89,0.0
3.0,1.0,90668945.0,-735.0,-2954.0,-698.0,0.0,14.85,0.0,0.0,-2.89,0.0
3.0,1.0,90681640.0,-765.0,-2941.0,-696.0,0.0,14.85,0.0,0.0,-2.89,0.0
3.0,1.0,90694335.0,-745.0,-2943.0,-698.0,0.0,14.85,0.0,0.0,-2.89,0.0
3.0,1.0,90707031.0,-726.0,-2953.0,-655.0,0.0,14.85,0.0,0.0,-2.89,0.0
3.0,1.0,90719726.0,-733.0,-2951.0,-637.0,0.0,14.85,0.0,0.0,-2.89,0.0
3.0,1.0,90733398.0,-715.0,-2968.0,-632.0,0.0,14.85,0.0,0.0,-2.89,0.0
3.0,1.0,90745117.0,-741.0,-2955.0,-658.0,0.0,14.85,0.0,0.0,-2.89,0.0
3.0,1.0,90757812.0,-764.0,-2920.0,-691.0,0.0,14.85,0.0,0.0,-2.89,0.0
3.0,1.0,90770507.0,-743.0,-2930.0,-698.0,0.0,14.85,0.0,0.0,-2.89,0.0
3.0,1.0,90783203.0,-776.0,-2956.0,-681.0,0.0,14.85,0.0,0.0,-2.89,0.0
3.0,1.0,90795898.0,-760.0,-2906.0,-676.0,0.0,14.85,0.0,0.0,-2.89,0.0
3.0,1.0,90808593.0,-737.0,-2953.0,-683.0,0.0,14.85,0.0,0.0,-2.89,0.0
3.0,1.0,90821289.0,-766.0,-2931.0,-673.0,0.0,14.85,0.0,0.0,-2.89,0.0
3.0,1.0,90833984.0,-756.0,-2923.0,-627.0,0.0,14.85,0.0,0.0,-2.89,0.0
3.0,1.0,90846679.0,-760.0,-2915.0,-673.0,0.0,14.85,0.0,0.0,-2.89,0.0
3.0,1.0,90859375.0,-754.0,-2944.0,-640.0,0.0,14.85,0.0,0.0,-2.89,0.0
3.0,1.0,90872070.0,-776.0,-2910.0,-612.0,0.0,14.85,0.0,0.0,-2.89,0.0
3.0,1.0,90884765.0,-728.0,-2910.0,-625.0,0.0,14.85,0.0,0.0,-2.89,0.0
3.0,1.0,90897460.0,-741.0,-2924.0,-659.0,0.0,14.85,0.0,0.0,-2.89,0.0
3.0,1.0,90910156.0,-734.0,-2934.0,-653.0,0.0,14.85,0.0,0.0,-2.89,0.0
3.0,1.0,90922851.0,-717.0,-2913.0,-677.0,0.0,14.85,0.0,0.0,-2.89,0.0
3.0,1.0,90935546.0,-744.0,-2896.0,-614.0,0.0,14.85,0.0,0.0,-2.89,0.0
3.0,1.0,90948242.0,-717.0,-2884.0,-693.0,0.0,14.85,0.0,0.0,-2.89,0.0
3.0,1.0,90960937.0,-745.0,-2891.0,-701.0,0.0,14.85,0.0,0.0,-2.89,0.0
3.0,1.0,90973632.0,-766.0,-2894.0,-705.0,0.0,14.85,0.0,0.0,-2.89,0.0
3.0,1.0,90986328.0,-759.0,-2901.0,-711.0,0.0,14.85,0.0,0.0,-2.89,0.0
3.0,1.0,90999023.0,-748.0,-2924.0,-679.0,0.0,14.85,0.0,0.0,-2.89,0.0
3.0,1.0,91011718.0,-751.0,-2930.0,-682.0,0.0,14.85,0.0,0.0,-2.89,0.0
3.0,1.0,91024414.0,-738.0,-2925.0,-692.0,0.0,14.85,0.0,0.0,-2.89,0.0
3.0,1.0,91037109.0,-729.0,-2911.0,-712.0,0.0,14.85,0.0,0.0,-2.89,0.0
3.0,1.0,91049804.0,-725.0,-2925.0,-743.0,0.0,14.85,0.0,0.0,-2.89,0.0
3.0,1.0,91062500.0,-710.0,-2927.0,-743.0,0.0,14.85,0.0,0.0,-2.89,0.0
3.0,1.0,91075195.0,-721.0,-2937.0,-716.0,0.0,14.85,0.0,0.0,-2.89,0.0
3.0,1.0,91087890.0,-730.0,-2923.0,-705.0,0.0,14.85,0.0,0.0,-2.89,0.0
3.0,1.0,91100585.0,-735.0,-2938.0,-667.0,0.0,14.85,0.0,0.0,-2.89,0.0
3.0,1.0,91113281.0,-732.0,-2935.0,-714.0,0.0,14.85,0.0,0.0,-2.89,0.0
3.0,1.0,91125976.0,-739.0,-2949.0,-685.0,0.0,14.85,0.0,0.0,-2.89,0.0
3.0,1.0,91138671.0,-749.0,-2950.0,-661.0,0.0,14.85,0.0,0.0,-2.89,0.0
3.0,1.0,91151367.0,-746.0,-2952.0,-700.0,0.0,14.85,0.0,0.0,-2.89,0.0
3.0,1.0,91164062.0,-728.0,-2941.0,-682.0,0.0,14.85,0.0,0.0,-2.89,0.0
3.0,1.0,91176757.0,-721.0,-2935.0,-667.0,0.0,14.85,0.0,0.0,-2.89,0.0
3.0,1.0,91189453.0,-741.0,-2936.0,-698.0,0.0,14.85,0.0,0.0,-2.89,0.0
3.0,1.0,91202148.0,-741.0,-2932.0,-651.0,0.0,14.85,0.0,0.0,-2.89,0.0
3.0,1.0,91214843.0,-740.0,-2938.0,-700.0,0.0,14.85,0.0,0.0,-2.89,0.0
3.0,1.0,91227539.0,-745.0,-2924.0,-722.0,0.0,14.85,0.0,0.0,-2.89,0.0
3.0,1.0,91240234.0,-757.0,-2923.0,-675.0,0.0,14.85,0.0,0.0,-2.89,0.0
3.0,1.0,91252929.0,-749.0,-2918.0,-672.0,0.0,14.85,0.0,0.0,-2.89,0.0
3.0,1.0,91265625.0,-761.0,-2927.0,-700.0,0.0,14.85,0.0,0.0,-2.89,0.0
3.0,1.0,91278320.0,-759.0,-2929.0,-672.0,0.0,14.85,0.0,0.0,-2.89,0.0
3.0,1.0,91291015.0,-755.0,-2910.0,-711.0,0.0,14.85,0.0,0.0,-2.89,0.0
3.0,1.0,91303710.0,-765.0,-2923.0,-653.0,0.0,14.85,0.0,0.0,-2.89,0.0
3.0,1.0,91316406.0,-703.0,-2939.0,-620.0,0.0,14.85,0.0,0.0,-2.89,0.0
3.0,1.0,91329101.0,-734.0,-2929.0,-674.0,0.0,14.85,0.0,0.0,-2.89,0.0
3.0,1.0,91341796.0,-761.0,-2920.0,-618.0,0.0,14.85,0.0,0.0,-2.89,0.0
3.0,1.0,91354492.0,-745.0,-2955.0,-668.0,0.0,14.85,0.0,0.0,-2.89,0.0
3.0,1.0,91367187.0,-733.0,-2938.0,-660.0,0.0,14.85,0.0,0.0,-2.89,0.0
3.0,1.0,91379882.0,-751.0,-2936.0,-616.0,0.0,14.85,0.0,0.0,-2.89,0.0
3.0,1.0,91393554.0,-784.0,-2904.0,-664.0,0.0,14.85,0.0,0.0,-2.89,0.0
3.0,1.0,91405273.0,-744.0,-2912.0,-651.0,0.0,14.85,0.0,0.0,-2.89,0.0
3.0,1.0,91417968.0,-765.0,-2923.0,-642.0,0.0,14.85,0.0,0.0,-2.89,0.0
3.0,1.0,91430664.0,-743.0,-2938.0,-739.0,0.0,14.85,0.0,0.0,-2.89,0.0
3.0,1.0,91443359.0,-765.0,-2918.0,-683.0,0.0,14.85,0.0,0.0,-2.89,0.0
3.0,1.0,91456054.0,-756.0,-2924.0,-660.0,0.0,14.85,0.0,0.0,-2.89,0.0
3.0,1.0,91468750.0,-764.0,-2927.0,-696.0,0.0,14.85,0.0,0.0,-2.89,0.0
3.0,1.0,91481445.0,-747.0,-2934.0,-690.0,0.0,14.85,0.0,0.0,-2.89,0.0
3.0,1.0,91494140.0,-745.0,-2944.0,-701.0,0.0,14.85,0.0,0.0,-2.89,0.0
3.0,1.0,91506835.0,-731.0,-2946.0,-654.0,0.0,14.85,0.0,0.0,-2.89,0.0
3.0,1.0,91519531.0,-739.0,-2952.0,-672.0,0.0,14.85,0.0,0.0,-2.89,0.0
3.0,1.0,91532226.0,-743.0,-2960.0,-658.0,0.0,14.85,0.0,0.0,-2.89,0.0
3.0,1.0,91544921.0,-728.0,-2956.0,-670.0,0.0,14.85,0.0,0.0,-2.89,0.0
3.0,1.0,91557617.0,-736.0,-2947.0,-686.0,0.0,14.85,0.0,0.0,-2.89,0.0
4.0,0.0,122866210.0,-788.0,-2911.0,-701.0,0.0,14.85,0.0,0.0,-2.89,0.0
4.0,0.0,122878906.0,-737.0,-2918.0,-720.0,0.0,14.85,0.0,0.0,-2.89,0.0
4.0,0.0,122891601.0,-741.0,-2903.0,-704.0,0.0,14.85,0.0,0.0,-2.89,0.0
4.0,0.0,122904296.0,-777.0,-2937.0,-724.0,0.0,14.85,0.0,0.0,-2.89,0.0
4.0,0.0,122916992.0,-755.0,-2923.0,-759.0,0.0,14.85,0.0,0.0,-2.89,0.0
4.0,0.0,122929687.0,-723.0,-2892.0,-701.0,0.0,14.85,0.0,0.0,-2.89,0.0
4.0,0.0,122942382.0,-749.0,-2896.0,-739.0,0.0,14.85,0.0,0.0,-2.89,0.0
4.0,0.0,122955078.0,-746.0,-2921.0,-687.0,0.0,14.85,0.0,0.0,-2.89,0.0
4.0,0.0,122967773.0,-755.0,-2908.0,-692.0,0.0,14.85,0.0,0.0,-2.89,0.0
4.0,0.0,122980468.0,-740.0,-2891.0,-730.0,0.0,14.85,0.0,0.0,-2.89,0.0
4.0,0.0,122993164.0,-755.0,-2931.0,-750.0,0.0,14.85,0.0,0.0,-2.89,0.0
4.0,0.0,123005859.0,-717.0,-2911.0,-733.0,0.0,14.85,0.0,0.0,-2.89,0.0
4.0,0.0,123018554.0,-734.0,-2894.0,-715.0,0.0,14.85,0.0,0.0,-2.89,0.0
4.0,0.0,123031250.0,-721.0,-2880.0,-654.0,0.0,14.85,0.0,0.0,-2.89,0.0
4.0,0.0,123043945.0,-733.0,-2889.0,-700.0,0.0,14.85,0.0,0.0,-2.89,0.0
4.0,0.0,123056640.0,-721.0,-2897.0,-696.0,0.0,14.85,0.0,0.0,-2.89,0.0
4.0,0.0,123069335.0,-742.0,-2908.0,-693.0,0.0,14.85,0.0,0.0,-2.89,0.0
4.0,0.0,123082031.0,-748.0,-2893.0,-722.0,0.0,14.85,0.0,0.0,-2.89,0.0
4.0,0.0,123094726.0,-752.0,-2892.0,-723.0,0.0,14.85,0.0,0.0,-2.89,0.0
4.0,0.0,123107421.0,-731.0,-2920.0,-680.0,0.0,14.85,0.0,0.0,-2.89,0.0
4.0,0.0,123120117.0,-746.0,-2910.0,-698.0,0.0,14.85,0.0,0.0,-2.89,0.0
4.0,0.0,123132812.0,-757.0,-2914.0,-680.0,0.0,14.85,0.0,0.0,-2.89,0.0
4.0,0.0,123145507.0,-748.0,-2903.0,-638.0,0.0,14.85,0.0,0.0,-2.89,0.0
4.0,0.0,123158203.0,-724.0,-2888.0,-703.0,0.0,14.85,0.0,0.0,-2.89,0.0
4.0,0.0,123170898.0,-742.0,-2883.0,-663.0,0.0,14.85,0.0,0.0,-2.89,0.0
4.0,0.0,123183593.0,-757.0,-2897.0,-702.0,0.0,14.85,0.0,0.0,-2.89,0.0
4.0,0.0,123196289.0,-742.0,-2887.0,-681.0,0.0,14.85,0.0,0.0,-2.89,0.0
4.0,0.0,123208984.0,-746.0,-2904.0,-691.0,0.0,14.85,0.0,0.0,-2.89,0.0
4.0,0.0,123221679.0,-730.0,-2911.0,-679.0,0.0,14.85,0.0,0.0,-2.89,0.0
4.0,0.0,123234375.0,-706.0,-2935.0,-701.0,0.0,14.85,0.0,0.0,-2.89,0.0
4.0,0.0,123247070.0,-723.0,-2881.0,-708.0,0.0,14.85,0.0,0.0,-2.89,0.0
4.0,0.0,123259765.0,-747.0,-2892.0,-680.0,0.0,14.85,0.0,0.0,-2.89,0.0
4.0,0.0,123272460.0,-735.0,-2894.0,-669.0,0.0,14.85,0.0,0.0,-2.89,0.0
4.0,0.0,123285156.0,-759.0,-2857.0,-639.0,0.0,14.85,0.0,0.0,-2.89,0.0
4.0,0.0,123297851.0,-735.0,-2887.0,-699.0,0.0,14.85,0.0,0.0,-2.89,0.0
4.0,0.0,123310546.0,-733.0,-2896.0,-738.0,0.0,14.85,0.0,0.0,-2.89,0.0
4.0,0.0,123323242.0,-749.0,-2893.0,-723.0,0.0,14.85,0.0,0.0,-2.89,0.0
4.0,0.0,123335937.0,-732.0,-2900.0,-704.0,0.0,14.85,0.0,0.0,-2.89,0.0
4.0,0.0,123348632.0,-747.0,-2916.0,-700.0,0.0,14.85,0.0,0.0,-2.89,0.0
4.0,0.0,123361328.0,-717.0,-2925.0,-708.0,0.0,14.85,0.0,0.0,-2.89,0.0
4.0,0.0,123374023.0,-719.0,-2910.0,-717.0,0.0,14.85,0.0,0.0,-2.89,0.0
4.0,0.0,123386718.0,-736.0,-2904.0,-773.0,0.0,14.85,0.0,0.0,-2.89,0.0
4.0,0.0,123399414.0,-746.0,-2898.0,-743.0,0.0,14.85,0.0,0.0,-2.89,0.0
4.0,0.0,123412109.0,-737.0,-2902.0,-688.0,0.0,14.85,0.0,0.0,-2.89,0.0
4.0,0.0,123424804.0,-698.0,-2900.0,-646.0,0.0,14.85,0.0,0.0,-2.89,0.0
4.0,0.0,123437500.0,-738.0,-2900.0,-691.0,0.0,14.85,0.0,0.0,-2.89,0.0
4.0,0.0,123450195.0,-745.0,-2879.0,-721.0,0.0,14.85,0.0,0.0,-2.89,0.0
4.0,0.0,123462890.0,-729.0,-2891.0,-698.0,0.0,14.85,0.0,0.0,-2.89,0.0
4.0,0.0,123475585.0,-709.0,-2873.0,-706.0,0.0,14.85,0.0,0.0,-2.89,0.0
4.0,0.0,123488281.0,-715.0,-2886.0,-720.0,0.0,14.85,0.0,0.0,-2.89,0.0
4.0,0.0,123500976.0,-704.0,-2895.0,-678.0,0.0,14.85,0.0,0.0,-2.89,0.0
4.0,0.0,123513671.0,-703.0,-2891.0,-718.0,0.0,14.85,0.0,0.0,-2.89,0.0
4.0,0.0,123526367.0,-719.0,-2889.0,-728.0,0.0,14.85,0.0,0.0,-2.89,0.0
4.0,0.0,123539062.0,-736.0,-2915.0,-706.0,0.0,14.85,0.0,0.0,-2.89,0.0
4.0,0.0,123552734.0,-756.0,-2894.0,-702.0,0.0,14.85,0.0,0.0,-2.89,0.0
4.0,0.0,123564453.0,-768.0,-2907.0,-700.0,0.0,14.85,0.0,0.0,-2.89,0.0
4.0,0.0,123577148.0,-784.0,-2920.0,-714.0,0.0,14.85,0.0,0.0,-2.89,0.0
4.0,0.0,123589843.0,-752.0,-2913.0,-737.0,0.0,14.85,0.0,0.0,-2.89,0.0
4.0,0.0,123602539.0,-752.0,-2900.0,-733.0,0.0,14.85,0.0,0.0,-2.89,0.0
4.0,0.0,123615234.0,-736.0,-2904.0,-707.0,0.0,14.85,0.0,0.0,-2.89,0.0
4.0,0.0,123627929.0,-743.0,-2908.0,-741.0,0.0,14.85,0.0,0.0,-2.89,0.0
4.0,0.0,123640625.0,-741.0,-2893.0,-734.0,0.0,14.85,0.0,0.0,-2.89,0.0
4.0,0.0,123653320.0,-720.0,-2913.0,-697.0,0.0,14.85,0.0,0.0,-2.89,0.0
4.0,0.0,123666015.0,-714.0,-2915.0,-712.0,0.0,14.85,0.0,0.0,-2.89,0.0
4.0,0.0,123678710.0,-742.0,-2931.0,-727.0,0.0,14.85,0.0,0.0,-2.89,0.0
4.0,0.0,123691406.0,-739.0,-2904.0,-638.0,0.0,14.85,0.0,0.0,-2.89,0.0
4.0,0.0,123704101.0,-738.0,-2910.0,-703.0,0.0,14.85,0.0,0.0,-2.89,0.0
4.0,0.0,123716796.0,-715.0,-2916.0,-707.0,0.0,14.85,0.0,0.0,-2.89,0.0
4.0,0.0,123729492.0,-754.0,-2909.0,-712.0,0.0,14.85,0.0,0.0,-2.89,0.0
4.0,0.0,123742187.0,-763.0,-2897.0,-682.0,0.0,14.85,0.0,0.0,-2.89,0.0
4.0,0.0,123754882.0,-763.0,-2900.0,-745.0,0.0,14.85,0.0,0.0,-2.89,0.0
4.0,0.0,123767578.0,-749.0,-2920.0,-679.0,0.0,14.85,0.0,0.0,-2.89,0.0
4.0,0.0,123780273.0,-755.0,-2895.0,-689.0,0.0,14.85,0.0,0.0,-2.89,0.0
4.0,0.0,123792968.0,-758.0,-2913.0,-731.0,0.0,14.85,0.0,0.0,-2.89,0.0
4.0,0.0,123805664.0,-737.0,-2894.0,-692.0,0.0,14.85,0.0,0.0,-2.89,0.0
4.0,0.0,123818359.0,-724.0,-2931.0,-723.0,0.0,14.85,0.0,0.0,-2.89,0.0
4.0,0.0,123831054.0,-735.0,-2931.0,-693.0,0.0,14.85,0.0,0.0,-2.89,0.0
4.0,0.0,123843750.0,-772.0,-2904.0,-747.0,0.0,14.85,0.0,0.0,-2.89,0.0
4.0,0.0,123856445.0,-732.0,-2927.0,-714.0,0.0,14.85,0.0,0.0,-2.89,0.0
4.0,0.0,123869140.0,-739.0,-2937.0,-700.0,0.0,14.85,0.0,0.0,-2.89,0.0
4.0,0.0,123881835.0,-751.0,-2969.0,-724.0,0.0,14.85,0.0,0.0,-2.89,0.0
4.0,0.0,123894531.0,-786.0,-2930.0,-751.0,0.0,14.85,0.0,0.0,-2.89,0.0
4.0,0.0,123907226.0,-758.0,-2916.0,-751.0,0.0,14.85,0.0,0.0,-2.89,0.0
4.0,0.0,123919921.0,-757.0,-2911.0,-722.0,0.0,14.85,0.0,0.0,-2.89,0.0
4.0,0.0,123932617.0,-753.0,-2915.0,-730.0,0.0,14.85,0.0,0.0,-2.89,0.0
4.0,0.0,123945312.0,-744.0,-2910.0,-687.0,0.0,14.85,0.0,0.0,-2.89,0.0
4.0,0.0,123958007.0,-785.0,-2916.0,-687.0,0.0,14.85,0.0,0.0,-2.89,0.0
4.0,0.0,123970703.0,-751.0,-2897.0,-704.0,0.0,14.85,0.0,0.0,-2.89,0.0
4.0,0.0,123983398.0,-738.0,-2915.0,-715.0,0.0,14.85,0.0,0.0,-2.89,0.0
4.0,0.0,123996093.0,-759.0,-2923.0,-701.0,0.0,14.85,0.0,0.0,-2.89,0.0
4.0,0.0,124008789.0,-750.0,-2933.0,-700.0,0.0,14.85,0.0,0.0,-2.89,0.0
4.0,0.0,124021484.0,-748.0,-2918.0,-719.0,0.0,14.85,0.0,0.0,-2.89,0.0
4.0,0.0,124034179.0,-733.0,-2916.0,-723.0,0.0,14.85,0.0,0.0,-2.89,0.0
4.0,0.0,124046875.0,-756.0,-2915.0,-729.0,0.0,14.85,0.0,0.0,-2.89,0.0
4.0,0.0,124059570.0,-774.0,-2929.0,-750.0,0.0,14.85,0.0,0.0,-2.89,0.0
4.0,0.0,124072265.0,-783.0,-2918.0,-679.0,0.0,14.85,0.0,0.0,-2.89,0.0
4.0,0.0,124084960.0,-774.0,-2936.0,-707.0,0.0,14.85,0.0,0.0,-2.89,0.0
4.0,0.0,124097656.0,-763.0,-2909.0,-706.0,0.0,14.85,0.0,0.0,-2.89,0.0
4.0,0.0,124110351.0,-748.0,-2903.0,-739.0,0.0,14.85,0.0,0.0,-2.89,0.0
4.0,0.0,124123046.0,-725.0,-2921.0,-717.0,0.0,14.85,0.0,0.0,-2.89,0.0
4.0,0.0,124135742.0,-781.0,-2908.0,-722.0,0.0,14.85,0.0,0.0,-2.89,0.0
4.0,0.0,124148437.0,-753.0,-2890.0,-729.0,0.0,14.85,0.0,0.0,-2.89,0.0
4.0,0.0,124161132.0,-746.0,-2904.0,-734.0,0.0,14.85,0.0,0.0,-2.89,0.0
4.0,0.0,124173828.0,-768.0,-2911.0,-746.0,0.0,14.85,0.0,0.0,-2.89,0.0
4.0,0.0,124186523.0,-728.0,-2914.0,-731.0,0.0,14.85,0.0,0.0,-2.89,0.0
4.0,0.0,124199218.0,-722.0,-2888.0,-774.0,0.0,14.85,0.0,0.0,-2.89,0.0
4.0,0.0,124211914.0,-738.0,-2907.0,-721.0,0.0,14.85,0.0,0.0,-2.89,0.0
4.0,0.0,124224609.0,-746.0,-2904.0,-775.0,0.0,14.85,0.0,0.0,-2.89,0.0
4.0,0.0,124237304.0,-734.0,-2927.0,-700.0,0.0,14.85,0.0,0.0,-2.89,0.0
4.0,0.0,124250000.0,-738.0,-2900.0,-760.0,0.0,14.85,0.0,0.0,-2.89,0.0
4.0,0.0,124262695.0,-739.0,-2906.0,-697.0,0.0,14.85,0.0,0.0,-2.89,0.0
4.0,0.0,124275390.0,-743.0,-2901.0,-705.0,0.0,14.85,0.0,0.0,-2.89,0.0
4.0,0.0,124288085.0,-730.0,-2907.0,-728.0,0.0,14.85,0.0,0.0,-2.89,0.0
4.0,0.0,124301757.0,-743.0,-2916.0,-727.0,0.0,14.85,0.0,0.0,-2.89,0.0
4.0,0.0,124313476.0,-731.0,-2945.0,-660.0,0.0,14.85,0.0,0.0,-2.89,0.0
4.0,0.0,124326171.0,-729.0,-2906.0,-635.0,0.0,14.85,0.0,0.0,-2.89,0.0
4.0,0.0,124338867.0,-724.0,-2922.0,-700.0,0.0,14.85,0.0,0.0,-2.89,0.0
4.0,0.0,124351562.0,-747.0,-2909.0,-715.0,0.0,14.85,0.0,0.0,-2.89,0.0
4.0,0.0,124364257.0,-743.0,-2913.0,-697.0,0.0,14.85,0.0,0.0,-2.89,0.0
4.0,0.0,124376953.0,-781.0,-2921.0,-722.0,0.0,14.85,0.0,0.0,-2.89,0.0
4.0,0.0,124389648.0,-733.0,-2919.0,-710.0,0.0,14.85,0.0,0.0,-2.89,0.0
4.0,0.0,124402343.0,-745.0,-2895.0,-721.0,0.0,14.85,0.0,0.0,-2.89,0.0
4.0,0.0,124415039.0,-729.0,-2907.0,-709.0,0.0,14.85,0.0,0.0,-2.89,0.0
4.0,0.0,124427734.0,-731.0,-2910.0,-700.0,0.0,14.85,0.0,0.0,-2.89,0.0
4.0,0.0,124440429.0,-752.0,-2901.0,-689.0,0.0,14.85,0.0,0.0,-2.89,0.0
4.0,0.0,124453125.0,-737.0,-2897.0,-685.0,0.0,14.85,0.0,0.0,-2.89,0.0
4.0,0.0,124465820.0,-749.0,-2925.0,-677.0,0.0,14.85,0.0,0.0,-2.89,0.0
4.0,0.0,124478515.0,-730.0,-2894.0,-731.0,0.0,14.85,0.0,0.0,-2.89,0.0
4.0,0.0,124491210.0,-725.0,-2906.0,-714.0,0.0,14.85,0.0,0.0,-2.89,0.0
4.0,0.0,124503906.0,-740.0,-2917.0,-678.0,0.0,14.85,0.0,0.0,-2.89,0.0
4.0,0.0,124516601.0,-734.0,-2904.0,-702.0,0.0,14.85,0.0,0.0,-2.89,0.0
4.0,0.0,124529296.0,-721.0,-2915.0,-669.0,0.0,14.85,0.0,0.0,-2.89,0.0
4.0,0.0,124541992.0,-756.0,-2921.0,-681.0,0.0,14.85,0.0,0.0,-2.89,0.0
4.0,0.0,124554687.0,-763.0,-2932.0,-667.0,0.0,14.85,0.0,0.0,-2.89,0.0
4.0,0.0,124567382.0,-745.0,-2912.0,-657.0,0.0,14.85,0.0,0.0,-2.89,0.0
4.0,0.0,124580078.0,-748.0,-2914.0,-694.0,0.0,14.85,0.0,0.0,-2.89,0.0
4.0,0.0,124592773.0,-746.0,-2901.0,-693.0,0.0,14.85,0.0,0.0,-2.89,0.0
4.0,0.0,124605468.0,-736.0,-2899.0,-629.0,0.0,14.85,0.0,0.0,-2.89,0.0
4.0,0.0,124618164.0,-754.0,-2898.0,-710.0,0.0,14.85,0.0,0.0,-2.89,0.0
4.0,0.0,124631835.0,-739.0,-2903.0,-728.0,0.0,14.85,0.0,0.0,-2.89,0.0
4.0,0.0,124643554.0,-729.0,-2911.0,-677.0,0.0,14.85,0.0,0.0,-2.89,0.0
4.0,0.0,124656250.0,-721.0,-2887.0,-691.0,0.0,14.85,0.0,0.0,-2.89,0.0
4.0,0.0,124668945.0,-727.0,-2907.0,-640.0,0.0,14.85,0.0,0.0,-2.89,0.0
4.0,0.0,124681640.0,-743.0,-2902.0,-665.0,0.0,14.85,0.0,0.0,-2.89,0.0
4.0,0.0,124694335.0,-740.0,-2902.0,-645.0,0.0,14.85,0.0,0.0,-2.89,0.0
4.0,0.0,124707031.0,-731.0,-2901.0,-696.0,0.0,14.85,0.0,0.0,-2.89,0.0
4.0,0.0,124719726.0,-719.0,-2909.0,-698.0,0.0,14.85,0.0,0.0,-2.89,0.0
4.0,0.0,124732421.0,-754.0,-2895.0,-691.0,0.0,14.85,0.0,0.0,-2.89,0.0
4.0,0.0,124745117.0,-746.0,-2917.0,-720.0,0.0,14.85,0.0,0.0,-2.89,0.0
4.0,0.0,124757812.0,-747.0,-2914.0,-726.0,0.0,14.85,0.0,0.0,-2.89,0.0
4.0,0.0,124770507.0,-745.0,-2929.0,-698.0,0.0,14.85,0.0,0.0,-2.89,0.0
4.0,0.0,124783203.0,-740.0,-2926.0,-681.0,0.0,14.85,0.0,0.0,-2.89,0.0
4.0,0.0,124795898.0,-743.0,-2902.0,-708.0,0.0,14.85,0.0,0.0,-2.89,0.0
4.0,0.0,124808593.0,-687.0,-2907.0,-685.0,0.0,14.85,0.0,0.0,-2.89,0.0
4.0,0.0,124821289.0,-724.0,-2929.0,-745.0,0.0,14.85,0.0,0.0,-2.89,0.0
4.0,0.0,124833984.0,-714.0,-2920.0,-700.0,0.0,14.85,0.0,0.0,-2.89,0.0
4.0,0.0,124846679.0,-728.0,-2907.0,-677.0,0.0,14.85,0.0,0.0,-2.89,0.0
4.0,0.0,124859375.0,-769.0,-2907.0,-712.0,0.0,14.85,0.0,0.0,-2.89,0.0
4.0,0.0,124872070.0,-744.0,-2924.0,-668.0,0.0,14.85,0.0,0.0,-2.89,0.0
4.0,0.0,124884765.0,-746.0,-2902.0,-695.0,0.0,14.85,0.0,0.0,-2.89,0.0
4.0,0.0,124897460.0,-757.0,-2916.0,-693.0,0.0,14.85,0.0,0.0,-2.89,0.0
4.0,0.0,124910156.0,-747.0,-2874.0,-702.0,0.0,14.85,0.0,0.0,-2.89,0.0
4.0,0.0,124922851.0,-724.0,-2893.0,-682.0,0.0,14.85,0.0,0.0,-2.89,0.0
4.0,0.0,124935546.0,-724.0,-2885.0,-676.0,0.0,14.85,0.0,0.0,-2.89,0.0
4.0,0.0,124948242.0,-764.0,-2905.0,-699.0,0.0,14.85,0.0,0.0,-2.89,0.0
4.0,0.0,124960937.0,-732.0,-2894.0,-692.0,0.0,14.85,0.0,0.0,-2.89,0.0
4.0,0.0,124973632.0,-726.0,-2848.0,-717.0,0.0,14.85,0.0,0.0,-2.89,0.0
4.0,0.0,124986328.0,-748.0,-2893.0,-698.0,0.0,14.85,0.0,0.0,-2.89,0.0
4.0,0.0,124999023.0,-734.0,-2870.0,-744.0,0.0,14.85,0.0,0.0,-2.89,0.0
4.0,0.0,125011718.0,-747.0,-2893.0,-740.0,0.0,14.85,0.0,0.0,-2.89,0.0
4.0,0.0,125024414.0,-762.0,-2886.0,-672.0,0.0,14.85,0.0,0.0,-2.89,0.0
4.0,0.0,125037109.0,-734.0,-2882.0,-699.0,0.0,14.85,0.0,0.0,-2.89,0.0
4.0,0.0,125049804.0,-747.0,-2908.0,-729.0,0.0,14.85,0.0,0.0,-2.89,0.0
4.0,0.0,125062500.0,-739.0,-2943.0,-716.0,0.0,14.85,0.0,0.0,-2.89,0.0
4.0,0.0,125075195.0,-745.0,-2915.0,-728.0,0.0,14.85,0.0,0.0,-2.89,0.0
4.0,0.0,125087890.0,-720.0,-2905.0,-738.0,0.0,14.85,0.0,0.0,-2.89,0.0
4.0,0.0,125100585.0,-743.0,-2919.0,-735.0,0.0,14.85,0.0,0.0,-2.89,0.0
4.0,0.0,125113281.0,-741.0,-2901.0,-739.0,0.0,14.85,0.0,0.0,-2.89,0.0
4.0,0.0,125125976.0,-756.0,-2897.0,-716.0,0.0,14.85,0.0,0.0,-2.89,0.0
4.0,0.0,125138671.0,-756.0,-2934.0,-751.0,0.0,14.85,0.0,0.0,-2.89,0.0
4.0,0.0,125151367.0,-762.0,-2917.0,-685.0,0.0,14.85,0.0,0.0,-2.89,0.0
4.0,0.0,125164062.0,-807.0,-2931.0,-730.0,0.0,14.85,0.0,0.0,-2.89,0.0
4.0,0.0,125176757.0,-748.0,-2888.0,-706.0,0.0,14.85,0.0,0.0,-2.89,0.0
4.0,0.0,125189453.0,-794.0,-2926.0,-716.0,0.0,14.85,0.0,0.0,-2.89,0.0
4.0,0.0,125202148.0,-768.0,-2914.0,-664.0,0.0,14.85,0.0,0.0,-2.89,0.0
4.0,0.0,125214843.0,-770.0,-2922.0,-695.0,0.0,14.85,0.0,0.0,-2.89,0.0
4.0,0.0,125227539.0,-790.0,-2914.0,-678.0,0.0,14.85,0.0,0.0,-2.89,0.0
4.0,0.0,125240234.0,-761.0,-2913.0,-694.0,0.0,14.85,0.0,0.0,-2.89,0.0
4.0,0.0,125252929.0,-744.0,-2897.0,-711.0,0.0,14.85,0.0,0.0,-2.89,0.0
4.0,0.0,125265625.0,-728.0,-2916.0,-660.0,0.0,14.85,0.0,0.0,-2.89,0.0
4.0,0.0,125278320.0,-753.0,-2883.0,-684.0,0.0,14.85,0.0,0.0,-2.89,0.0
4.0,0.0,125291015.0,-737.0,-2907.0,-726.0,0.0,14.85,0.0,0.0,-2.89,0.0
4.0,0.0,125303710.0,-772.0,-2917.0,-723.0,0.0,14.85,0.0,0.0,-2.89,0.0
4.0,0.0,125316406.0,-746.0,-2931.0,-693.0,0.0,14.85,0.0,0.0,-2.89,0.0
4.0,0.0,125329101.0,-757.0,-2922.0,-745.0,0.0,14.85,0.0,0.0,-2.89,0.0
4.0,0.0,125341796.0,-750.0,-2896.0,-710.0,0.0,14.85,0.0,0.0,-2.89,0.0
4.0,0.0,125354492.0,-720.0,-2902.0,-768.0,0.0,14.85,0.0,0.0,-2.89,0.0
4.0,0.0,125367187.0,-731.0,-2913.0,-715.0,0.0,14.85,0.0,0.0,-2.89,0.0
4.0,0.0,125379882.0,-736.0,-2913.0,-736.0,0.0,14.85,0.0,0.0,-2.89,0.0
4.0,0.0,125392578.0,-732.0,-2940.0,-764.0,0.0,14.85,0.0,0.0,-2.89,0.0
4.0,0.0,125405273.0,-749.0,-2885.0,-724.0,0.0,14.85,0.0,0.0,-2.89,0.0
4.0,0.0,125417968.0,-737.0,-2917.0,-691.0,0.0,14.85,0.0,0.0,-2.89,0.0
4.0,0.0,125430664.0,-740.0,-2933.0,-682.0,0.0,14.85,0.0,0.0,-2.89,0.0
4.0,0.0,125443359.0,-746.0,-2918.0,-698.0,0.0,14.85,0.0,0.0,-2.89,0.0
4.0,0.0,125456054.0,-742.0,-2908.0,-680.0,0.0,14.85,0.0,0.0,-2.89,0.0
4.0,0.0,125468750.0,-726.0,-2907.0,-708.0,0.0,14.85,0.0,0.0,-2.89,0.0
4.0,0.0,125481445.0,-737.0,-2920.0,-636.0,0.0,14.85,0.0,0.0,-2.89,0.0
4.0,0.0,125494140.0,-728.0,-2925.0,-693.0,0.0,14.85,0.0,0.0,-2.89,0.0
4.0,0.0,125506835.0,-750.0,-2900.0,-704.0,0.0,14.85,0.0,0.0,-2.89,0.0
4.0,0.0,125519531.0,-773.0,-2883.0,-715.0,0.0,14.85,0.0,0.0,-2.89,0.0
4.0,0.0,125532226.0,-721.0,-2884.0,-682.0,0.0,14.85,0.0,0.0,-2.89,0.0
4.0,0.0,125544921.0,-764.0,-2894.0,-681.0,0.0,14.85,0.0,0.0,-2.89,0.0
4.0,0.0,125557617.0,-748.0,-2886.0,-707.0,0.0,14.85,0.0,0.0,-2.89,0.0
4.0,0.0,125570312.0,-724.0,-2914.0,-702.0,0.0,14.85,0.0,0.0,-2.89,0.0
4.0,0.0,125583007.0,-739.0,-2872.0,-697.0,0.0,14.85,0.0,0.0,-2.89,0.0
4.0,0.0,125595703.0,-750.0,-2896.0,-721.0,0.0,14.85,0.0,0.0,-2.89,0.0
4.0,0.0,125608398.0,-730.0,-2884.0,-682.0,0.0,14.85,0.0,0.0,-2.89,0.0
4.0,0.0,125621093.0,-705.0,-2917.0,-717.0,0.0,14.85,0.0,0.0,-2.89,0.0
4.0,0.0,125633789.0,-749.0,-2899.0,-690.0,0.0,14.85,0.0,0.0,-2.89,0.0
4.0,0.0,125646484.0,-778.0,-2898.0,-745.0,0.0,14.85,0.0,0.0,-2.89,0.0
4.0,0.0,125659179.0,-707.0,-2932.0,-717.0,0.0,14.85,0.0,0.0,-2.89,0.0
4.0,0.0,125671875.0,-707.0,-2909.0,-714.0,0.0,14.85,0.0,0.0,-2.89,0.0
4.0,0.0,125684570.0,-721.0,-2895.0,-672.0,0.0,14.85,0.0,0.0,-2.89,0.0
4.0,0.0,125697265.0,-758.0,-2911.0,-657.0,0.0,14.85,0.0,0.0,-2.89,0.0
4.0,0.0,125709960.0,-729.0,-2929.0,-656.0,0.0,14.85,0.0,0.0,-2.89,0.0
4.0,0.0,125722656.0,-741.0,-2915.0,-679.0,0.0,14.85,0.0,0.0,-2.89,0.0
4.0,0.0,125735351.0,-719.0,-2928.0,-674.0,0.0,14.85,0.0,0.0,-2.89,0.0
4.0,0.0,125748046.0,-776.0,-2894.0,-708.0,0.0,14.85,0.0,0.0,-2.89,0.0
4.0,0.0,125760742.0,-777.0,-2906.0,-756.0,0.0,14.85,0.0,0.0,-2.89,0.0
4.0,0.0,125773437.0,-753.0,-2899.0,-695.0,0.0,14.85,0.0,0.0,-2.89,0.0
4.0,0.0,125786132.0,-745.0,-2891.0,-733.0,0.0,14.85,0.0,0.0,-2.89,0.0
4.0,0.0,125798828.0,-718.0,-2841.0,-728.0,0.0,14.85,0.0,0.0,-2.89,0.0
