data_num,trick_type,time,mag_x,mag_y,mag_z,acc_x,acc_y,acc_z,gyro_x,gyro_y,gyro_z
1.0,1.0,33953125.0,-4607.0,1513.0,-3113.0,-0.2,-3.47,9.61,0.05,-0.11,-0.03
1.0,1.0,33939453.0,-4590.0,1554.0,-3141.0,-0.21,-3.49,9.63,0.05,-0.11,-0.03
1.0,1.0,33925781.0,-4596.0,1497.0,-3142.0,-0.24,-3.45,9.59,0.05,-0.11,-0.03
1.0,1.0,33912109.0,-4597.0,1505.0,-3145.0,-0.23,-3.46,9.57,0.05,-0.1,-0.03
1.0,1.0,33898437.0,-4613.0,1519.0,-3162.0,-0.22,-3.45,9.57,0.05,-0.1,-0.03
1.0,1.0,33884765.0,-4579.0,1526.0,-3193.0,-0.18,-3.47,9.63,0.05,-0.11,-0.03
1.0,1.0,33871093.0,-4585.0,1497.0,-3207.0,-0.22,-3.48,9.66,0.05,-0.11,-0.03
1.0,1.0,33857421.0,-4605.0,1535.0,-3171.0,-0.2,-3.44,9.58,0.05,-0.11,-0.03
1.0,1.0,33843750.0,-4572.0,1550.0,-3150.0,-0.2,-3.48,9.61,0.05,-0.11,-0.03
1.0,1.0,33829101.0,-4609.0,1516.0,-3180.0,-0.21,-3.46,9.6,0.05,-0.11,-0.03
1.0,1.0,33815429.0,-4598.0,1544.0,-3124.0,-0.22,-3.47,9.59,0.05,-0.11,-0.03
1.0,1.0,33801757.0,-4621.0,1559.0,-3160.0,-0.21,-3.46,9.58,0.05,-0.11,-0.03
1.0,1.0,33788085.0,-4584.0,1540.0,-3155.0,-0.22,-3.47,9.59,0.05,-0.11,-0.03
1.0,1.0,33774414.0,-4598.0,1563.0,-3140.0,-0.22,-3.47,9.6,0.05,-0.11,-0.03
1.0,1.0,33760742.0,-4609.0,1537.0,-3139.0,-0.22,-3.46,9.6,0.05,-0.11,-0.03
1.0,1.0,33747070.0,-4611.0,1528.0,-3120.0,-0.21,-3.46,9.61,0.05,-0.11,-0.03
1.0,1.0,33733398.0,-4634.0,1546.0,-3145.0,-0.21,-3.46,9.59,0.05,-0.11,-0.03
1.0,1.0,33719726.0,-4638.0,1521.0,-3184.0,-0.21,-3.47,9.6,0.05,-0.11,-0.03
1.0,1.0,33706054.0,-4629.0,1538.0,-3127.0,-0.21,-3.45,9.6,0.05,-0.11,-0.03
1.0,1.0,33692382.0,-4608.0,1528.0,-3118.0,-0.21,-3.46,9.6,0.05,-0.11,-0.03
1.0,1.0,33678710.0,-4601.0,1496.0,-3157.0,-0.21,-3.46,9.59,0.05,-0.11,-0.03
1.0,1.0,33665039.0,-4591.0,1518.0,-3138.0,-0.21,-3.46,9.59,0.05,-0.11,-0.03
1.0,1.0,33651367.0,-4585.0,1509.0,-3151.0,-0.21,-3.46,9.59,0.05,-0.11,-0.03
1.0,1.0,33637695.0,-4572.0,1502.0,-3148.0,-0.2,-3.46,9.6,0.05,-0.11,-0.03
1.0,1.0,33624023.0,-4603.0,1508.0,-3131.0,-0.22,-3.46,9.61,0.05,-0.11,-0.03
1.0,1.0,33610351.0,-4618.0,1530.0,-3095.0,-0.22,-3.46,9.59,0.05,-0.11,-0.03
1.0,1.0,33596679.0,-4623.0,1548.0,-3085.0,-0.22,-3.47,9.59,0.05,-0.11,-0.03
1.0,1.0,33583007.0,-4630.0,1542.0,-3124.0,-0.21,-3.47,9.6,0.05,-0.11,-0.03
1.0,1.0,33569335.0,-4615.0,1519.0,-3139.0,-0.2,-3.46,9.6,0.05,-0.11,-0.03
1.0,1.0,33555664.0,-4570.0,1513.0,-3085.0,-0.21,-3.45,9.6,0.05,-0.11,-0.03
1.0,1.0,33541992.0,-4583.0,1532.0,-3134.0,-0.21,-3.46,9.6,0.05,-0.11,-0.03
1.0,1.0,33528320.0,-4614.0,1514.0,-3154.0,-0.21,-3.47,9.6,0.05,-0.11,-0.03
1.0,1.0,33514648.0,-4614.0,1539.0,-3156.0,-0.22,-3.48,9.6,0.05,-0.11,-0.03
1.0,1.0,33500976.0,-4578.0,1512.0,-3144.0,-0.21,-3.46,9.6,0.05,-0.11,-0.03
1.0,1.0,33487304.0,-4588.0,1476.0,-3133.0,-0.22,-3.45,9.61,0.05,-0.11,-0.03
1.0,1.0,33473632.0,-4586.0,1507.0,-3107.0,-0.21,-3.46,9.6,0.05,-0.11,-0.03
1.0,1.0,33459960.0,-4582.0,1488.0,-3097.0,-0.22,-3.46,9.6,0.05,-0.11,-0.03
1.0,1.0,33446289.0,-4586.0,1528.0,-3160.0,-0.2,-3.47,9.61,0.05,-0.11,-0.03
1.0,1.0,33432617.0,-4603.0,1497.0,-3119.0,-0.21,-3.47,9.6,0.05,-0.11,-0.03
1.0,1.0,33418945.0,-4610.0,1497.0,-3130.0,-0.2,-3.46,9.61,0.05,-0.11,-0.03
1.0,1.0,33405273.0,-4637.0,1517.0,-3144.0,-0.21,-3.46,9.59,0.05,-0.11,-0.03
1.0,1.0,33391601.0,-4627.0,1519.0,-3129.0,-0.22,-3.47,9.61,0.05,-0.11,-0.03
1.0,1.0,33377929.0,-4621.0,1546.0,-3150.0,-0.2,-3.47,9.6,0.05,-0.11,-0.03
1.0,1.0,33364257.0,-4598.0,1517.0,-3135.0,-0.2,-3.47,9.6,0.05,-0.11,-0.03
1.0,1.0,33350585.0,-4629.0,1529.0,-3128.0,-0.22,-3.47,9.59,0.05,-0.11,-0.03
1.0,1.0,33336914.0,-4610.0,1542.0,-3137.0,-0.21,-3.46,9.61,0.05,-0.11,-0.03
1.0,1.0,33323242.0,-4598.0,1509.0,-3140.0,-0.21,-3.46,9.6,0.05,-0.11,-0.03
1.0,1.0,33309570.0,-4592.0,1535.0,-3202.0,-0.21,-3.48,9.6,0.05,-0.11,-0.03
1.0,1.0,33295898.0,-4594.0,1539.0,-3147.0,-0.21,-3.46,9.6,0.05,-0.11,-0.03
1.0,1.0,33282226.0,-4591.0,1544.0,-3156.0,-0.21,-3.46,9.6,0.05,-0.11,-0.03
1.0,1.0,33268554.0,-4592.0,1505.0,-3178.0,-0.2,-3.47,9.6,0.05,-0.11,-0.03
1.0,1.0,33254882.0,-4609.0,1524.0,-3177.0,-0.22,-3.46,9.6,0.05,-0.11,-0.03
1.0,1.0,33241210.0,-4579.0,1514.0,-3198.0,-0.2,-3.47,9.6,0.05,-0.11,-0.03
1.0,1.0,33227539.0,-4583.0,1503.0,-3207.0,-0.21,-3.46,9.59,0.05,-0.11,-0.03
1.0,1.0,33213867.0,-4593.0,1516.0,-3151.0,-0.21,-3.46,9.6,0.05,-0.11,-0.03
1.0,1.0,33200195.0,-4605.0,1540.0,-3170.0,-0.2,-3.47,9.6,0.05,-0.11,-0.03
1.0,1.0,33186523.0,-4644.0,1525.0,-3177.0,-0.21,-3.47,9.6,0.05,-0.11,-0.03
1.0,1.0,33172851.0,-4616.0,1510.0,-3128.0,-0.22,-3.47,9.6,0.05,-0.11,-0.03
1.0,1.0,33159179.0,-4630.0,1532.0,-3163.0,-0.21,-3.47,9.61,0.05,-0.11,-0.03
1.0,1.0,33145507.0,-4600.0,1543.0,-3145.0,-0.21,-3.46,9.61,0.05,-0.11,-0.03
1.0,1.0,33131835.0,-4587.0,1533.0,-3122.0,-0.21,-3.46,9.6,0.05,-0.11,-0.03
1.0,1.0,33118164.0,-4606.0,1511.0,-3175.0,-0.21,-3.47,9.6,0.05,-0.11,-0.03
1.0,1.0,33104492.0,-4647.0,1533.0,-3133.0,-0.21,-3.46,9.6,0.05,-0.11,-0.03
1.0,1.0,33090820.0,-4622.0,1512.0,-3141.0,-0.21,-3.47,9.6,0.05,-0.11,-0.03
1.0,1.0,33076171.0,-4604.0,1508.0,-3126.0,-0.22,-3.46,9.59,0.05,-0.11,-0.03
1.0,1.0,33062500.0,-4613.0,1519.0,-3152.0,-0.22,-3.46,9.6,0.05,-0.11,-0.03
1.0,1.0,33047851.0,-4591.0,1545.0,-3117.0,-0.21,-3.47,9.6,0.05,-0.11,-0.03
1.0,1.0,33034179.0,-4589.0,1549.0,-3120.0,-0.21,-3.47,9.59,0.05,-0.11,-0.03
1.0,1.0,33020507.0,-4599.0,1540.0,-3158.0,-0.21,-3.46,9.6,0.05,-0.11,-0.03
1.0,1.0,33006835.0,-4585.0,1519.0,-3134.0,-0.21,-3.46,9.6,0.05,-0.11,-0.03
1.0,1.0,32993164.0,-4610.0,1498.0,-3123.0,-0.22,-3.47,9.6,0.05,-0.11,-0.03
1.0,1.0,32979492.0,-4625.0,1557.0,-3137.0,-0.21,-3.46,9.61,0.05,-0.11,-0.03
1.0,1.0,32965820.0,-4585.0,1514.0,-3165.0,-0.21,-3.47,9.6,0.05,-0.11,-0.03
1.0,1.0,32952148.0,-4633.0,1516.0,-3111.0,-0.21,-3.46,9.6,0.05,-0.11,-0.03
1.0,1.0,32938476.0,-4632.0,1514.0,-3148.0,-0.21,-3.46,9.6,0.05,-0.11,-0.03
1.0,1.0,32924804.0,-4608.0,1501.0,-3151.0,-0.21,-3.45,9.6,0.05,-0.11,-0.03
1.0,1.0,32911132.0,-4616.0,1520.0,-3109.0,-0.22,-3.47,9.59,0.05,-0.11,-0.03
1.0,1.0,32897460.0,-4622.0,1547.0,-3129.0,-0.21,-3.46,9.6,0.05,-0.11,-0.03
1.0,1.0,32883789.0,-4633.0,1543.0,-3121.0,-0.2,-3.46,9.6,0.05,-0.11,-0.03
1.0,1.0,32870117.0,-4628.0,1527.0,-3138.0,-0.21,-3.47,9.6,0.05,-0.11,-0.03
1.0,1.0,32856445.0,-4627.0,1542.0,-3167.0,-0.22,-3.46,9.59,0.05,-0.11,-0.03
1.0,1.0,32842773.0,-4612.0,1524.0,-3167.0,-0.22,-3.46,9.6,0.05,-0.11,-0.03
1.0,1.0,32829101.0,-4609.0,1282.0,-3166.0,-0.21,-3.46,9.61,0.05,-0.11,-0.03
1.0,1.0,32815429.0,-4601.0,1547.0,-3152.0,-0.22,-3.46,9.6,0.05,-0.11,-0.03
1.0,1.0,32801757.0,-4633.0,1547.0,-3182.0,-0.22,-3.46,9.6,0.05,-0.11,-0.03
1.0,1.0,32788085.0,-4604.0,1574.0,-3180.0,-0.21,-3.46,9.6,0.05,-0.11,-0.03
1.0,1.0,32774414.0,-4606.0,1514.0,-3201.0,-0.21,-3.47,9.59,0.05,-0.11,-0.03
1.0,1.0,32760742.0,-4655.0,1505.0,-3153.0,-0.2,-3.46,9.59,0.05,-0.11,-0.03
1.0,1.0,32747070.0,-4634.0,1538.0,-3079.0,-0.21,-3.46,9.6,0.05,-0.11,-0.03
1.0,1.0,32733398.0,-4621.0,1539.0,-3134.0,-0.21,-3.47,9.61,0.05,-0.11,-0.03
1.0,1.0,32718750.0,-4586.0,1543.0,-3165.0,-0.21,-3.45,9.6,0.05,-0.11,-0.03
1.0,1.0,32705078.0,-4627.0,1564.0,-3155.0,-0.22,-3.45,9.6,0.05,-0.11,-0.03
1.0,1.0,32691406.0,-4613.0,1554.0,-3172.0,-0.21,-3.46,9.61,0.05,-0.11,-0.03
1.0,1.0,32677734.0,-4633.0,1542.0,-3192.0,-0.2,-3.46,9.61,0.05,-0.11,-0.03
1.0,1.0,32664062.0,-4606.0,1520.0,-3167.0,-0.21,-3.46,9.6,0.05,-0.11,-0.03
1.0,1.0,32650390.0,-4615.0,1535.0,-3207.0,-0.21,-3.46,9.6,0.05,-0.11,-0.03
1.0,1.0,32636718.0,-4617.0,1537.0,-3185.0,-0.21,-3.47,9.6,0.05,-0.11,-0.03
1.0,1.0,32623046.0,-4605.0,1518.0,-3134.0,-0.21,-3.47,9.6,0.05,-0.11,-0.03
1.0,1.0,32609375.0,-4603.0,1541.0,-3114.0,-0.22,-3.46,9.6,0.05,-0.11,-0.03
1.0,1.0,32595703.0,-4618.0,1523.0,-3153.0,-0.21,-3.45,9.59,0.05,-0.11,-0.03
1.0,1.0,32582031.0,-4606.0,1527.0,-3116.0,-0.21,-3.46,9.6,0.05,-0.11,-0.03
1.0,1.0,32568359.0,-4629.0,1497.0,-3142.0,-0.21,-3.47,9.61,0.05,-0.11,-0.03
1.0,1.0,32554687.0,-4609.0,1528.0,-3169.0,-0.21,-3.47,9.61,0.05,-0.11,-0.03
1.0,1.0,32541015.0,-4587.0,1533.0,-3140.0,-0.21,-3.46,9.6,0.05,-0.11,-0.03
1.0,1.0,32527343.0,-4586.0,1505.0,-3131.0,-0.21,-3.47,9.6,0.05,-0.11,-0.03
1.0,1.0,32513671.0,-4595.0,1509.0,-3160.0,-0.21,-3.46,9.6,0.05,-0.11,-0.03
1.0,1.0,32500000.0,-4597.0,1534.0,-3160.0,-0.21,-3.46,9.59,0.05,-0.11,-0.03
1.0,1.0,32486328.0,-4617.0,1519.0,-3102.0,-0.2,-3.46,9.6,0.05,-0.11,-0.03
1.0,1.0,32472656.0,-4620.0,1510.0,-3114.0,-0.21,-3.47,9.61,0.05,-0.11,-0.03
1.0,1.0,32458984.0,-4649.0,1493.0,-3117.0,-0.21,-3.46,9.6,0.05,-0.11,-0.03
1.0,1.0,32445312.0,-4605.0,1485.0,-3091.0,-0.22,-3.46,9.61,0.05,-0.11,-0.03
1.0,1.0,32431640.0,-4611.0,1540.0,-3160.0,-0.22,-3.45,9.6,0.05,-0.11,-0.03
1.0,1.0,32417968.0,-4590.0,1525.0,-3154.0,-0.22,-3.47,9.6,0.05,-0.11,-0.03
1.0,1.0,32404296.0,-4585.0,1532.0,-3123.0,-0.21,-3.47,9.6,0.05,-0.11,-0.03
1.0,1.0,32390625.0,-4592.0,1478.0,-3125.0,-0.22,-3.47,9.59,0.05,-0.11,-0.03
1.0,1.0,32376953.0,-4624.0,1516.0,-3131.0,-0.21,-3.46,9.62,0.05,-0.11,-0.03
1.0,1.0,32363281.0,-4601.0,1501.0,-3145.0,-0.21,-3.46,9.6,0.05,-0.11,-0.03
1.0,1.0,32349609.0,-4595.0,1533.0,-3125.0,-0.21,-3.48,9.6,0.05,-0.11,-0.03
1.0,1.0,32335937.0,-4592.0,1525.0,-3130.0,-0.21,-3.46,9.6,0.05,-0.11,-0.03
1.0,1.0,32322265.0,-4628.0,1488.0,-3095.0,-0.22,-3.46,9.6,0.05,-0.11,-0.03
1.0,1.0,32308593.0,-4597.0,1526.0,-3112.0,-0.2,-3.46,9.6,0.05,-0.11,-0.03
1.0,1.0,32294921.0,-4604.0,1519.0,-3118.0,-0.21,-3.46,9.6,0.05,-0.11,-0.03
1.0,1.0,32281250.0,-4584.0,1502.0,-3126.0,-0.21,-3.46,9.59,0.05,-0.11,-0.03
1.0,1.0,32267578.0,-4592.0,1486.0,-3133.0,-0.21,-3.46,9.6,0.05,-0.11,-0.03
1.0,1.0,32253906.0,-4599.0,1530.0,-3101.0,-0.21,-3.46,9.6,0.05,-0.11,-0.03
1.0,1.0,32240234.0,-4590.0,1506.0,-3113.0,-0.22,-3.46,9.6,0.05,-0.11,-0.03
1.0,1.0,32226562.0,-4596.0,1520.0,-3131.0,-0.2,-3.46,9.59,0.05,-0.11,-0.03
1.0,1.0,32212890.0,-4623.0,1508.0,-3129.0,-0.21,-3.47,9.6,0.05,-0.11,-0.03
1.0,1.0,32199218.0,-4618.0,1519.0,-3091.0,-0.21,-3.46,9.6,0.05,-0.11,-0.03
1.0,1.0,32185546.0,-4589.0,1510.0,-3121.0,-0.2,-3.45,9.59,0.05,-0.11,-0.03
1.0,1.0,32171875.0,-4618.0,1485.0,-3098.0,-0.2,-3.45,9.6,0.05,-0.11,-0.03
1.0,1.0,32158203.0,-4632.0,1529.0,-3172.0,-0.21,-3.46,9.6,0.05,-0.11,-0.03
1.0,1.0,32144531.0,-4624.0,1520.0,-3114.0,-0.21,-3.47,9.59,0.05,-0.11,-0.03
1.0,1.0,32130859.0,-4608.0,1530.0,-3111.0,-0.22,-3.47,9.6,0.05,-0.11,-0.03
1.0,1.0,32117187.0,-4636.0,1503.0,-3137.0,-0.21,-3.47,9.59,0.05,-0.11,-0.03
1.0,1.0,32103515.0,-4596.0,1516.0,-3109.0,-0.22,-3.46,9.6,0.05,-0.11,-0.03
1.0,1.0,32089843.0,-4603.0,1492.0,-3097.0,-0.22,-3.47,9.6,0.05,-0.11,-0.03
1.0,1.0,32076171.0,-4625.0,1496.0,-3165.0,-0.21,-3.47,9.6,0.05,-0.11,-0.03
1.0,1.0,32062500.0,-4606.0,1504.0,-3115.0,-0.22,-3.46,9.6,0.05,-0.11,-0.03
1.0,1.0,32048828.0,-4599.0,1516.0,-3170.0,-0.2,-3.46,9.59,0.05,-0.11,-0.03
1.0,1.0,32035156.0,-4611.0,1498.0,-3138.0,-0.21,-3.46,9.6,0.05,-0.11,-0.03
1.0,1.0,32021484.0,-4596.0,1525.0,-3124.0,-0.2,-3.46,9.59,0.05,-0.11,-0.03
1.0,1.0,32007812.0,-4560.0,1496.0,-3101.0,-0.2,-3.46,9.6,0.05,-0.11,-0.03
1.0,1.0,31994140.0,-4603.0,1524.0,-3137.0,-0.21,-3.46,9.6,0.05,-0.11,-0.03
1.0,1.0,31980468.0,-4601.0,1518.0,-3099.0,-0.21,-3.46,9.6,0.05,-0.11,-0.03
1.0,1.0,31966796.0,-4620.0,1495.0,-3096.0,-0.21,-3.47,9.61,0.05,-0.11,-0.03
1.0,1.0,31953125.0,-4590.0,1508.0,-3120.0,-0.22,-3.47,9.59,0.05,-0.11,-0.03
1.0,1.0,31939453.0,-4594.0,1498.0,-3117.0,-0.22,-3.47,9.6,0.05,-0.11,-0.03
1.0,1.0,31925781.0,-4615.0,1511.0,-3090.0,-0.2,-3.46,9.6,0.05,-0.11,-0.03
1.0,1.0,31912109.0,-4596.0,1519.0,-3138.0,-0.2,-3.46,9.6,0.05,-0.11,-0.03
1.0,1.0,31898437.0,-4640.0,1530.0,-3163.0,-0.2,-3.45,9.59,0.05,-0.11,-0.03
1.0,1.0,31884765.0,-4617.0,1488.0,-3121.0,-0.2,-3.46,9.6,0.05,-0.11,-0.03
1.0,1.0,31871093.0,-4617.0,1500.0,-3158.0,-0.2,-3.46,9.59,0.05,-0.11,-0.03
1.0,1.0,31857421.0,-4618.0,1505.0,-3081.0,-0.21,-3.47,9.61,0.05,-0.11,-0.03
1.0,1.0,31843750.0,-4630.0,1510.0,-3110.0,-0.22,-3.47,9.59,0.05,-0.11,-0.03
1.0,1.0,31830078.0,-4618.0,1475.0,-3094.0,-0.21,-3.47,9.6,0.05,-0.11,-0.03
1.0,1.0,31816406.0,-4623.0,1510.0,-3108.0,-0.22,-3.47,9.6,0.05,-0.11,-0.03
1.0,1.0,31802734.0,-4605.0,1506.0,-3134.0,-0.22,-3.47,9.59,0.05,-0.11,-0.03
1.0,1.0,31789062.0,-4601.0,1523.0,-3139.0,-0.21,-3.47,9.6,0.05,-0.11,-0.03
1.0,1.0,31775390.0,-4621.0,1497.0,-3118.0,-0.22,-3.46,9.6,0.05,-0.11,-0.03
1.0,1.0,31761718.0,-4600.0,1512.0,-3126.0,-0.2,-3.45,9.6,0.05,-0.11,-0.03
1.0,1.0,31748046.0,-4615.0,1483.0,-3105.0,-0.2,-3.45,9.6,0.05,-0.11,-0.03
1.0,1.0,31734375.0,-4593.0,1484.0,-3156.0,-0.2,-3.45,9.6,0.05,-0.11,-0.03
1.0,1.0,31720703.0,-4603.0,1524.0,-3168.0,-0.2,-3.46,9.61,0.05,-0.11,-0.03
1.0,1.0,31707031.0,-4585.0,1498.0,-3135.0,-0.2,-3.46,9.6,0.05,-0.11,-0.03
1.0,1.0,31693359.0,-4581.0,1513.0,-3121.0,-0.21,-3.47,9.6,0.05,-0.11,-0.03
1.0,1.0,31679687.0,-4612.0,1489.0,-3153.0,-0.22,-3.47,9.6,0.05,-0.11,-0.03
1.0,1.0,31666015.0,-4614.0,1508.0,-3149.0,-0.22,-3.47,9.6,0.05,-0.11,-0.03
1.0,1.0,31652343.0,-4618.0,1485.0,-3212.0,-0.23,-3.48,9.61,0.05,-0.11,-0.03
1.0,1.0,31638671.0,-4621.0,1503.0,-3169.0,-0.21,-3.46,9.59,0.05,-0.11,-0.03
1.0,1.0,31625000.0,-4615.0,1514.0,-3130.0,-0.22,-3.46,9.6,0.05,-0.11,-0.03
1.0,1.0,31611328.0,-4583.0,1519.0,-3182.0,-0.21,-3.46,9.6,0.05,-0.11,-0.03
1.0,1.0,31597656.0,-4607.0,1506.0,-3136.0,-0.22,-3.46,9.59,0.05,-0.11,-0.03
1.0,1.0,31583984.0,-4628.0,1501.0,-3135.0,-0.22,-3.46,9.59,0.05,-0.11,-0.03
1.0,1.0,31570312.0,-4618.0,1527.0,-3117.0,-0.21,-3.46,9.59,0.05,-0.11,-0.03
1.0,1.0,31556640.0,-4610.0,1533.0,-3130.0,-0.21,-3.46,9.6,0.05,-0.11,-0.03
1.0,1.0,31542968.0,-4621.0,1531.0,-3136.0,-0.22,-3.46,9.6,0.05,-0.11,-0.03
1.0,1.0,31529296.0,-4615.0,1536.0,-3095.0,-0.21,-3.46,9.59,0.05,-0.11,-0.03
1.0,1.0,31515625.0,-4631.0,1516.0,-3099.0,-0.2,-3.47,9.6,0.05,-0.11,-0.03
1.0,1.0,31501953.0,-4601.0,1523.0,-3155.0,-0.21,-3.46,9.6,0.05,-0.11,-0.03
1.0,1.0,31488281.0,-4610.0,1524.0,-3153.0,-0.21,-3.46,9.6,0.05,-0.11,-0.03
1.0,1.0,31474609.0,-4606.0,1499.0,-3154.0,-0.21,-3.47,9.6,0.05,-0.11,-0.03
1.0,1.0,31460937.0,-4591.0,1519.0,-3184.0,-0.21,-3.47,9.6,0.05,-0.11,-0.03
1.0,1.0,31447265.0,-4604.0,1532.0,-3150.0,-0.22,-3.45,9.59,0.05,-0.11,-0.03
1.0,1.0,31433593.0,-4590.0,1526.0,-3126.0,-0.21,-3.46,9.59,0.05,-0.11,-0.03
1.0,1.0,31419921.0,-4582.0,1523.0,-3109.0,-0.22,-3.47,9.6,0.05,-0.11,-0.03
1.0,1.0,31406250.0,-4581.0,1508.0,-3140.0,-0.22,-3.46,9.59,0.05,-0.11,-0.03
1.0,1.0,31392578.0,-4597.0,1504.0,-3134.0,-0.22,-3.47,9.6,0.05,-0.11,-0.03
1.0,1.0,31378906.0,-4606.0,1502.0,-3145.0,-0.22,-3.47,9.6,0.05,-0.11,-0.03
1.0,1.0,31365234.0,-4610.0,1483.0,-3089.0,-0.21,-3.47,9.59,0.05,-0.11,-0.03
1.0,1.0,31351562.0,-4609.0,1509.0,-3151.0,-0.21,-3.45,9.6,0.05,-0.11,-0.03
1.0,1.0,31337890.0,-4622.0,1495.0,-3145.0,-0.21,-3.46,9.6,0.05,-0.11,-0.03
1.0,1.0,31324218.0,-4611.0,1522.0,-3114.0,-0.21,-3.46,9.6,0.05,-0.11,-0.03
1.0,1.0,31310546.0,-4587.0,1523.0,-3145.0,-0.21,-3.46,9.6,0.05,-0.11,-0.03
1.0,1.0,31296875.0,-4609.0,1545.0,-3108.0,-0.22,-3.47,9.59,0.05,-0.11,-0.03
1.0,1.0,31283203.0,-4602.0,1513.0,-3132.0,-0.21,-3.47,9.59,0.05,-0.11,-0.03
1.0,1.0,31269531.0,-4616.0,1502.0,-3116.0,-0.22,-3.46,9.6,0.05,-0.11,-0.03
1.0,1.0,31255859.0,-4601.0,1523.0,-3119.0,-0.22,-3.46,9.6,0.05,-0.11,-0.03
1.0,1.0,31242187.0,-4602.0,1525.0,-3136.0,-0.22,-3.47,9.6,0.05,-0.11,-0.03
1.0,1.0,31228515.0,-4577.0,1497.0,-3160.0,-0.22,-3.47,9.6,0.05,-0.11,-0.03
2.0,1.0,3826610829.0,-3032.0,467.0,2068.0,-0.17,-3.41,9.61,0.05,-0.11,-0.03
2.0,1.0,3826597157.0,-3003.0,433.0,2026.0,-0.17,-3.41,9.61,0.05,-0.11,-0.02
2.0,1.0,3826583485.0,-3015.0,446.0,2047.0,-0.18,-3.42,9.61,0.05,-0.1,-0.03
2.0,1.0,3826569813.0,-3022.0,436.0,2018.0,-0.18,-3.43,9.61,0.05,-0.11,-0.03
2.0,1.0,3826556142.0,-3018.0,487.0,2065.0,-0.18,-3.43,9.61,0.05,-0.11,-0.03
2.0,1.0,3826542470.0,-3012.0,467.0,2073.0,-0.18,-3.42,9.59,0.05,-0.11,-0.03
2.0,1.0,3826528798.0,-3043.0,487.0,2035.0,-0.18,-3.43,9.63,0.05,-0.11,-0.03
2.0,1.0,3826515126.0,-3013.0,450.0,1996.0,-0.17,-3.41,9.6,0.05,-0.11,-0.03
2.0,1.0,3826501454.0,-3013.0,430.0,2000.0,-0.16,-3.41,9.61,0.05,-0.11,-0.03
2.0,1.0,3826487782.0,-3017.0,474.0,2007.0,-0.16,-3.4,9.62,0.05,-0.11,-0.03
2.0,1.0,3826474110.0,-3000.0,479.0,2032.0,-0.15,-3.41,9.6,0.05,-0.11,-0.02
2.0,1.0,3826460438.0,-2994.0,472.0,1998.0,-0.16,-3.4,9.62,0.05,-0.11,-0.03
2.0,1.0,3826446767.0,-3010.0,482.0,2037.0,-0.16,-3.41,9.61,0.05,-0.1,-0.03
2.0,1.0,3826433095.0,-3001.0,450.0,2016.0,-0.17,-3.41,9.61,0.05,-0.11,-0.03
2.0,1.0,3826419423.0,-2992.0,452.0,2034.0,-0.19,-3.42,9.61,0.05,-0.1,-0.03
2.0,1.0,3826405751.0,-2980.0,473.0,2010.0,-0.19,-3.43,9.6,0.05,-0.11,-0.03
2.0,1.0,3826392079.0,-2999.0,469.0,2047.0,-0.18,-3.42,9.62,0.05,-0.1,-0.03
2.0,1.0,3826378407.0,-3008.0,478.0,2051.0,-0.17,-3.41,9.6,0.05,-0.1,-0.03
2.0,1.0,3826364735.0,-2991.0,477.0,2023.0,-0.17,-3.41,9.61,0.05,-0.11,-0.03
2.0,1.0,3826351063.0,-3010.0,475.0,2050.0,-0.15,-3.41,9.61,0.05,-0.1,-0.03
2.0,1.0,3826337392.0,-3005.0,482.0,2023.0,-0.15,-3.39,9.61,0.05,-0.11,-0.03
2.0,1.0,3826323720.0,-3014.0,446.0,1983.0,-0.16,-3.41,9.6,0.05,-0.11,-0.03
2.0,1.0,3826310048.0,-3011.0,458.0,2005.0,-0.16,-3.42,9.62,0.05,-0.1,-0.02
2.0,1.0,3826296376.0,-3025.0,457.0,2002.0,-0.16,-3.42,9.62,0.05,-0.1,-0.02
2.0,1.0,3826282704.0,-3028.0,477.0,1996.0,-0.18,-3.42,9.62,0.05,-0.11,-0.03
2.0,1.0,3826269032.0,-3042.0,467.0,2026.0,-0.18,-3.43,9.6,0.05,-0.11,-0.03
2.0,1.0,3826255360.0,-3028.0,475.0,2026.0,-0.17,-3.42,9.61,0.05,-0.11,-0.03
2.0,1.0,3826241688.0,-3042.0,471.0,2066.0,-0.18,-3.42,9.61,0.05,-0.11,-0.03
2.0,1.0,3826228017.0,-3028.0,474.0,2014.0,-0.17,-3.42,9.62,0.05,-0.11,-0.03
2.0,1.0,3826214345.0,-3032.0,478.0,2005.0,-0.15,-3.41,9.61,0.05,-0.11,-0.03
2.0,1.0,3826200673.0,-2999.0,458.0,2047.0,-0.15,-3.4,9.61,0.05,-0.1,-0.03
2.0,1.0,3826187001.0,-3032.0,485.0,2016.0,-0.17,-3.41,9.62,0.05,-0.11,-0.03
2.0,1.0,3826173329.0,-3035.0,488.0,2041.0,-0.16,-3.42,9.62,0.05,-0.1,-0.03
2.0,1.0,3826159657.0,-3015.0,490.0,1973.0,-0.17,-3.41,9.6,0.05,-0.11,-0.03
2.0,1.0,3826145985.0,-3008.0,463.0,2034.0,-0.17,-3.42,9.61,0.05,-0.11,-0.03
2.0,1.0,3826132313.0,-3025.0,481.0,2021.0,-0.19,-3.42,9.62,0.05,-0.1,-0.03
2.0,1.0,3826118642.0,-3019.0,490.0,2067.0,-0.17,-3.43,9.62,0.05,-0.11,-0.03
2.0,1.0,3826104970.0,-3011.0,478.0,2067.0,-0.17,-3.41,9.61,0.05,-0.11,-0.03
2.0,1.0,3826091298.0,-3022.0,471.0,2042.0,-0.17,-3.4,9.61,0.05,-0.11,-0.03
2.0,1.0,3826077626.0,-3031.0,457.0,2032.0,-0.17,-3.41,9.62,0.05,-0.1,-0.03
2.0,1.0,3826063954.0,-3048.0,479.0,1990.0,-0.16,-3.4,9.62,0.05,-0.11,-0.03
2.0,1.0,3826050282.0,-3038.0,451.0,2035.0,-0.16,-3.42,9.6,0.05,-0.11,-0.03
2.0,1.0,3826036610.0,-3037.0,457.0,1988.0,-0.16,-3.42,9.61,0.05,-0.11,-0.03
2.0,1.0,3826022938.0,-3001.0,473.0,2002.0,-0.17,-3.4,9.61,0.05,-0.11,-0.02
2.0,1.0,3826009267.0,-3004.0,466.0,2007.0,-0.17,-3.42,9.61,0.05,-0.11,-0.03
2.0,1.0,3825995595.0,-3022.0,456.0,2061.0,-0.17,-3.42,9.62,0.05,-0.1,-0.03
2.0,1.0,3825981923.0,-3021.0,495.0,2042.0,-0.17,-3.42,9.61,0.05,-0.11,-0.03
2.0,1.0,3825968251.0,-3037.0,460.0,2034.0,-0.16,-3.41,9.61,0.05,-0.11,-0.03
2.0,1.0,3825954579.0,-3024.0,445.0,2083.0,-0.16,-3.41,9.61,0.05,-0.11,-0.03
2.0,1.0,3825939931.0,-3056.0,469.0,2076.0,-0.16,-3.41,9.62,0.05,-0.11,-0.03
2.0,1.0,3825926259.0,-3066.0,454.0,2042.0,-0.16,-3.41,9.62,0.05,-0.11,-0.03
2.0,1.0,3825912587.0,-3037.0,471.0,2024.0,-0.17,-3.42,9.62,0.05,-0.11,-0.03
2.0,1.0,3825898915.0,-3027.0,441.0,1984.0,-0.17,-3.43,9.61,0.05,-0.11,-0.03
2.0,1.0,3825885243.0,-3037.0,443.0,2009.0,-0.18,-3.42,9.61,0.05,-0.1,-0.03
2.0,1.0,3825871571.0,-3048.0,447.0,2051.0,-0.18,-3.42,9.62,0.05,-0.11,-0.03
2.0,1.0,3825857899.0,-3032.0,457.0,2100.0,-0.18,-3.43,9.62,0.05,-0.11,-0.03
2.0,1.0,3825844227.0,-3055.0,487.0,1992.0,-0.17,-3.42,9.62,0.05,-0.1,-0.03
2.0,1.0,3825830556.0,-3035.0,450.0,2064.0,-0.16,-3.42,9.61,0.05,-0.11,-0.03
2.0,1.0,3825816884.0,-3027.0,485.0,2012.0,-0.16,-3.41,9.61,0.05,-0.11,-0.03
2.0,1.0,3825803212.0,-3069.0,453.0,2006.0,-0.15,-3.4,9.62,0.05,-0.1,-0.03
2.0,1.0,3825789540.0,-3067.0,482.0,2035.0,-0.16,-3.4,9.61,0.05,-0.11,-0.03
2.0,1.0,3825775868.0,-3041.0,443.0,1984.0,-0.17,-3.41,9.62,0.05,-0.1,-0.03
2.0,1.0,3825762196.0,-3013.0,447.0,1992.0,-0.17,-3.41,9.62,0.05,-0.1,-0.03
2.0,1.0,3825748524.0,-3021.0,438.0,1992.0,-0.17,-3.42,9.62,0.05,-0.1,-0.03
2.0,1.0,3825734852.0,-3009.0,453.0,1989.0,-0.18,-3.43,9.63,0.05,-0.1,-0.03
2.0,1.0,3825721181.0,-3030.0,447.0,2012.0,-0.19,-3.43,9.62,0.05,-0.11,-0.03
2.0,1.0,3825707509.0,-3023.0,436.0,2045.0,-0.18,-3.41,9.61,0.05,-0.11,-0.03
2.0,1.0,3825693837.0,-3009.0,421.0,2005.0,-0.17,-3.41,9.6,0.05,-0.11,-0.03
2.0,1.0,3825680165.0,-3031.0,446.0,2047.0,-0.17,-3.41,9.61,0.05,-0.11,-0.03
2.0,1.0,3825666493.0,-3035.0,437.0,2068.0,-0.15,-3.41,9.62,0.05,-0.1,-0.03
2.0,1.0,3825652821.0,-3006.0,434.0,2074.0,-0.17,-3.41,9.61,0.05,-0.11,-0.03
2.0,1.0,3825639149.0,-3011.0,457.0,2043.0,-0.17,-3.41,9.62,0.05,-0.11,-0.03
2.0,1.0,3825625477.0,-3023.0,462.0,2054.0,-0.17,-3.42,9.61,0.05,-0.11,-0.03
2.0,1.0,3825611806.0,-3039.0,437.0,2048.0,-0.16,-3.41,9.61,0.05,-0.11,-0.03
2.0,1.0,3825598134.0,-3032.0,452.0,2035.0,-0.16,-3.41,9.6,0.05,-0.11,-0.03
2.0,1.0,3825584462.0,-3044.0,449.0,2008.0,-0.17,-3.4,9.61,0.05,-0.11,-0.03
2.0,1.0,3825570790.0,-3057.0,459.0,1995.0,-0.17,-3.42,9.61,0.05,-0.1,-0.02
2.0,1.0,3825557118.0,-3039.0,453.0,2026.0,-0.17,-3.42,9.62,0.05,-0.11,-0.03
2.0,1.0,3825543446.0,-3046.0,453.0,2009.0,-0.17,-3.42,9.61,0.05,-0.11,-0.03
2.0,1.0,3825529774.0,-3031.0,432.0,1825.0,-0.17,-3.43,9.6,0.05,-0.1,-0.03
2.0,1.0,3825516102.0,-3038.0,453.0,2081.0,-0.17,-3.42,9.61,0.05,-0.1,-0.02
2.0,1.0,3825502431.0,-3024.0,462.0,2042.0,-0.17,-3.42,9.61,0.05,-0.11,-0.02
2.0,1.0,3825488759.0,-3020.0,445.0,2056.0,-0.17,-3.42,9.61,0.05,-0.1,-0.03
2.0,1.0,3825475087.0,-3010.0,424.0,2108.0,-0.16,-3.42,9.61,0.05,-0.11,-0.03
2.0,1.0,3825461415.0,-3012.0,418.0,2072.0,-0.17,-3.41,9.62,0.05,-0.1,-0.03
2.0,1.0,3825447743.0,-3040.0,463.0,2033.0,-0.16,-3.41,9.62,0.05,-0.11,-0.03
2.0,1.0,3825434071.0,-2997.0,454.0,2043.0,-0.16,-3.42,9.62,0.05,-0.11,-0.03
2.0,1.0,3825420399.0,-3020.0,448.0,2037.0,-0.16,-3.41,9.6,0.05,-0.11,-0.03
2.0,1.0,3825406727.0,-3002.0,469.0,2051.0,-0.16,-3.42,9.62,0.05,-0.11,-0.03
2.0,1.0,3825393056.0,-3013.0,468.0,2049.0,-0.17,-3.43,9.62,0.05,-0.11,-0.03
2.0,1.0,3825379384.0,-2995.0,464.0,2021.0,-0.16,-3.42,9.61,0.05,-0.1,-0.03
2.0,1.0,3825365712.0,-2983.0,478.0,2044.0,-0.17,-3.42,9.61,0.05,-0.11,-0.03
2.0,1.0,3825352040.0,-3000.0,456.0,1992.0,-0.17,-3.42,9.62,0.05,-0.11,-0.03
2.0,1.0,3825338368.0,-3006.0,464.0,2078.0,-0.17,-3.41,9.61,0.05,-0.11,-0.03
2.0,1.0,3825324696.0,-3026.0,455.0,2020.0,-0.17,-3.42,9.61,0.05,-0.11,-0.03
2.0,1.0,3825311024.0,-3017.0,426.0,2003.0,-0.16,-3.42,9.6,0.05,-0.11,-0.03
2.0,1.0,3825297352.0,-3020.0,457.0,2071.0,-0.18,-3.41,9.61,0.05,-0.11,-0.03
2.0,1.0,3825283681.0,-3011.0,451.0,1966.0,-0.16,-3.42,9.62,0.05,-0.11,-0.03
2.0,1.0,3825270009.0,-3012.0,450.0,2020.0,-0.17,-3.41,9.61,0.05,-0.11,-0.03
2.0,1.0,3825256337.0,-3009.0,467.0,1996.0,-0.17,-3.41,9.61,0.05,-0.11,-0.03
2.0,1.0,3825242665.0,-3025.0,444.0,1952.0,-0.16,-3.42,9.61,0.05,-0.1,-0.03
2.0,1.0,3825228993.0,-3012.0,438.0,2019.0,-0.18,-3.41,9.61,0.05,-0.11,-0.03
2.0,1.0,3825215321.0,-2991.0,449.0,2009.0,-0.19,-3.41,9.61,0.05,-0.11,-0.03
2.0,1.0,3825201649.0,-3051.0,450.0,2013.0,-0.17,-3.42,9.61,0.05,-0.11,-0.03
2.0,1.0,3825187977.0,-3017.0,453.0,2008.0,-0.17,-3.42,9.59,0.05,-0.11,-0.03
2.0,1.0,3825174306.0,-3040.0,480.0,1969.0,-0.17,-3.41,9.61,0.05,-0.11,-0.03
2.0,1.0,3825159657.0,-3045.0,477.0,2035.0,-0.17,-3.42,9.6,0.05,-0.11,-0.03
2.0,1.0,3825145985.0,-3052.0,470.0,2016.0,-0.17,-3.41,9.61,0.05,-0.11,-0.03
2.0,1.0,3825132313.0,-3049.0,468.0,2015.0,-0.17,-3.42,9.61,0.05,-0.11,-0.03
2.0,1.0,3825118642.0,-2993.0,458.0,2017.0,-0.16,-3.42,9.61,0.05,-0.11,-0.03
2.0,1.0,3825104970.0,-2987.0,452.0,2057.0,-0.16,-3.41,9.6,0.05,-0.11,-0.03
2.0,1.0,3825091298.0,-3002.0,430.0,2040.0,-0.16,-3.41,9.6,0.05,-0.11,-0.03
2.0,1.0,3825077626.0,-3031.0,435.0,1999.0,-0.17,-3.42,9.6,0.05,-0.11,-0.03
2.0,1.0,3825063954.0,-2985.0,422.0,1998.0,-0.18,-3.42,9.6,0.05,-0.11,-0.03
2.0,1.0,3825050282.0,-2990.0,461.0,2022.0,-0.18,-3.42,9.61,0.05,-0.11,-0.03
2.0,1.0,3825036610.0,-2990.0,449.0,2007.0,-0.18,-3.42,9.6,0.05,-0.11,-0.03
2.0,1.0,3825022938.0,-2996.0,437.0,2012.0,-0.18,-3.42,9.62,0.05,-0.11,-0.03
2.0,1.0,3825009267.0,-3004.0,442.0,2020.0,-0.17,-3.41,9.6,0.05,-0.11,-0.03
2.0,1.0,3824995595.0,-3018.0,443.0,2029.0,-0.17,-3.41,9.61,0.05,-0.11,-0.03
2.0,1.0,3824981923.0,-2988.0,433.0,2019.0,-0.16,-3.41,9.61,0.05,-0.11,-0.02
2.0,1.0,3824968251.0,-2981.0,438.0,1980.0,-0.17,-3.42,9.61,0.05,-0.11,-0.03
2.0,1.0,3824954579.0,-2978.0,441.0,2017.0,-0.17,-3.41,9.61,0.05,-0.1,-0.03
2.0,1.0,3824940907.0,-3005.0,435.0,2047.0,-0.16,-3.42,9.63,0.05,-0.11,-0.03
2.0,1.0,3824927235.0,-3017.0,423.0,2047.0,-0.17,-3.43,9.62,0.05,-0.11,-0.03
2.0,1.0,3824913563.0,-3004.0,436.0,2026.0,-0.17,-3.42,9.61,0.05,-0.11,-0.03
2.0,1.0,3824899892.0,-3026.0,443.0,2058.0,-0.17,-3.4,9.6,0.05,-0.11,-0.03
2.0,1.0,3824886220.0,-3003.0,463.0,2036.0,-0.17,-3.42,9.6,0.05,-0.11,-0.03
2.0,1.0,3824872548.0,-3000.0,438.0,2059.0,-0.17,-3.42,9.61,0.05,-0.11,-0.03
2.0,1.0,3824858876.0,-3020.0,470.0,2047.0,-0.17,-3.41,9.61,0.05,-0.11,-0.03
2.0,1.0,3824845204.0,-3005.0,445.0,2051.0,-0.16,-3.41,9.61,0.05,-0.11,-0.03
2.0,1.0,3824830556.0,-2985.0,448.0,2019.0,-0.16,-3.41,9.61,0.05,-0.11,-0.03
2.0,1.0,3824816884.0,-2999.0,429.0,2060.0,-0.17,-3.42,9.62,0.05,-0.11,-0.03
2.0,1.0,3824803212.0,-3006.0,422.0,2090.0,-0.17,-3.41,9.61,0.05,-0.11,-0.03
2.0,1.0,3824789540.0,-2980.0,421.0,2056.0,-0.18,-3.42,9.62,0.05,-0.11,-0.03
2.0,1.0,3824775868.0,-2980.0,439.0,2005.0,-0.18,-3.42,9.62,0.05,-0.1,-0.03
2.0,1.0,3824762196.0,-2956.0,432.0,2036.0,-0.17,-3.42,9.6,0.05,-0.11,-0.03
2.0,1.0,3824748524.0,-2997.0,441.0,2070.0,-0.17,-3.41,9.61,0.05,-0.11,-0.03
2.0,1.0,3824734852.0,-2975.0,420.0,2043.0,-0.17,-3.41,9.61,0.05,-0.1,-0.03
2.0,1.0,3824721181.0,-3004.0,445.0,2032.0,-0.17,-3.42,9.6,0.05,-0.11,-0.03
2.0,1.0,3824707509.0,-3008.0,469.0,2048.0,-0.17,-3.41,9.62,0.05,-0.11,-0.03
2.0,1.0,3824693837.0,-2975.0,491.0,2036.0,-0.16,-3.41,9.61,0.05,-0.11,-0.03
2.0,1.0,3824680165.0,-2997.0,473.0,2053.0,-0.16,-3.41,9.61,0.05,-0.1,-0.03
2.0,1.0,3824666493.0,-2988.0,460.0,2050.0,-0.17,-3.41,9.61,0.05,-0.11,-0.03
2.0,1.0,3824652821.0,-2985.0,429.0,2026.0,-0.16,-3.41,9.6,0.05,-0.11,-0.02
2.0,1.0,3824639149.0,-2993.0,452.0,2040.0,-0.17,-3.41,9.61,0.05,-0.11,-0.03
2.0,1.0,3824625477.0,-2967.0,440.0,1987.0,-0.18,-3.42,9.61,0.05,-0.11,-0.03
2.0,1.0,3824611806.0,-2980.0,435.0,2000.0,-0.17,-3.42,9.61,0.05,-0.11,-0.03
2.0,1.0,3824598134.0,-2989.0,430.0,2007.0,-0.18,-3.42,9.61,0.05,-0.11,-0.03
2.0,1.0,3824584462.0,-2993.0,434.0,2061.0,-0.17,-3.42,9.61,0.05,-0.11,-0.03
2.0,1.0,3824570790.0,-2991.0,430.0,2050.0,-0.17,-3.41,9.61,0.05,-0.1,-0.03
2.0,1.0,3824557118.0,-3019.0,460.0,1991.0,-0.15,-3.41,9.61,0.05,-0.11,-0.03
2.0,1.0,3824543446.0,-3002.0,478.0,2035.0,-0.16,-3.41,9.61,0.05,-0.1,-0.03
2.0,1.0,3824529774.0,-2973.0,464.0,1978.0,-0.16,-3.42,9.62,0.05,-0.1,-0.03
2.0,1.0,3824516102.0,-2992.0,458.0,2073.0,-0.16,-3.41,9.63,0.05,-0.1,-0.03
2.0,1.0,3824502431.0,-3004.0,427.0,2091.0,-0.16,-3.43,9.63,0.05,-0.11,-0.03
2.0,1.0,3824488759.0,-2965.0,473.0,2085.0,-0.17,-3.41,9.62,0.05,-0.11,-0.03
2.0,1.0,3824475087.0,-2983.0,444.0,2024.0,-0.18,-3.41,9.61,0.05,-0.11,-0.03
2.0,1.0,3824461415.0,-2975.0,441.0,2032.0,-0.16,-3.42,9.61,0.05,-0.1,-0.03
2.0,1.0,3824447743.0,-2999.0,446.0,2011.0,-0.17,-3.42,9.62,0.05,-0.11,-0.03
2.0,1.0,3824434071.0,-3007.0,483.0,2035.0,-0.16,-3.41,9.62,0.05,-0.11,-0.03
2.0,1.0,3824420399.0,-3000.0,452.0,1987.0,-0.17,-3.42,9.62,0.05,-0.1,-0.03
2.0,1.0,3824406727.0,-2984.0,459.0,2008.0,-0.17,-3.41,9.62,0.05,-0.1,-0.03
2.0,1.0,3824393056.0,-2980.0,467.0,2011.0,-0.17,-3.41,9.62,0.05,-0.11,-0.03
2.0,1.0,3824379384.0,-2969.0,464.0,2031.0,-0.18,-3.42,9.61,0.05,-0.1,-0.03
2.0,1.0,3824365712.0,-2960.0,464.0,2047.0,-0.17,-3.42,9.6,0.05,-0.11,-0.03
2.0,1.0,3824352040.0,-2979.0,455.0,2039.0,-0.17,-3.41,9.62,0.05,-0.1,-0.03
2.0,1.0,3824338368.0,-3005.0,442.0,2062.0,-0.17,-3.41,9.62,0.05,-0.11,-0.03
2.0,1.0,3824324696.0,-2983.0,425.0,1990.0,-0.16,-3.42,9.61,0.05,-0.11,-0.03
2.0,1.0,3824311024.0,-3000.0,471.0,2037.0,-0.16,-3.42,9.62,0.05,-0.11,-0.03
2.0,1.0,3824297352.0,-2990.0,455.0,2066.0,-0.17,-3.42,9.62,0.05,-0.1,-0.03
2.0,1.0,3824283681.0,-3002.0,458.0,2050.0,-0.17,-3.41,9.62,0.05,-0.11,-0.03
2.0,1.0,3824270009.0,-3028.0,464.0,2036.0,-0.16,-3.41,9.62,0.05,-0.11,-0.03
2.0,1.0,3824256337.0,-3005.0,447.0,2022.0,-0.17,-3.41,9.62,0.05,-0.11,-0.03
2.0,1.0,3824242665.0,-3010.0,451.0,2050.0,-0.18,-3.42,9.61,0.05,-0.1,-0.03
2.0,1.0,3824228017.0,-3022.0,445.0,2016.0,-0.17,-3.43,9.61,0.05,-0.11,-0.03
2.0,1.0,3824214345.0,-3008.0,476.0,2054.0,-0.17,-3.42,9.62,0.05,-0.11,-0.03
2.0,1.0,3824200673.0,-2942.0,447.0,1994.0,-0.17,-3.41,9.62,0.05,-0.11,-0.03
2.0,1.0,3824187001.0,-2966.0,485.0,2013.0,-0.17,-3.42,9.62,0.05,-0.11,-0.03
2.0,1.0,3824173329.0,-2986.0,466.0,2046.0,-0.16,-3.41,9.61,0.05,-0.11,-0.03
2.0,1.0,3824159657.0,-2982.0,487.0,2058.0,-0.17,-3.42,9.62,0.05,-0.11,-0.03
2.0,1.0,3824145985.0,-2978.0,478.0,2078.0,-0.17,-3.41,9.63,0.05,-0.1,-0.03
2.0,1.0,3824132313.0,-2993.0,504.0,2059.0,-0.17,-3.41,9.61,0.05,-0.11,-0.03
2.0,1.0,3824118642.0,-3001.0,496.0,2000.0,-0.17,-3.41,9.62,0.05,-0.11,-0.03
2.0,1.0,3824104970.0,-2984.0,473.0,2054.0,-0.18,-3.42,9.61,0.05,-0.1,-0.03
2.0,1.0,3824091298.0,-3009.0,507.0,2045.0,-0.18,-3.41,9.62,0.05,-0.11,-0.03
2.0,1.0,3824077626.0,-2989.0,490.0,2088.0,-0.17,-3.41,9.61,0.05,-0.1,-0.03
2.0,1.0,3824063954.0,-3000.0,473.0,2021.0,-0.16,-3.42,9.63,0.05,-0.11,-0.03
2.0,1.0,3824050282.0,-3012.0,498.0,2021.0,-0.17,-3.41,9.62,0.05,-0.1,-0.03
2.0,1.0,3824036610.0,-3006.0,484.0,2061.0,-0.16,-3.41,9.62,0.05,-0.11,-0.03
2.0,1.0,3824022938.0,-2998.0,480.0,2059.0,-0.16,-3.41,9.61,0.05,-0.11,-0.03
2.0,1.0,3824009267.0,-2986.0,498.0,2009.0,-0.17,-3.41,9.62,0.05,-0.11,-0.03
2.0,1.0,3823995595.0,-2967.0,474.0,2026.0,-0.17,-3.41,9.62,0.05,-0.11,-0.03
2.0,1.0,3823981923.0,-3006.0,473.0,2038.0,-0.17,-3.42,9.62,0.05,-0.11,-0.03
2.0,1.0,3823968251.0,-2990.0,497.0,2035.0,-0.17,-3.42,9.61,0.05,-0.11,-0.03
2.0,1.0,3823954579.0,-2991.0,475.0,2023.0,-0.17,-3.42,9.62,0.05,-0.11,-0.03
2.0,1.0,3823940907.0,-3027.0,484.0,2000.0,-0.17,-3.41,9.62,0.05,-0.11,-0.03
2.0,1.0,3823927235.0,-3020.0,498.0,1952.0,-0.16,-3.41,9.62,0.05,-0.11,-0.03
2.0,1.0,3823913563.0,-3026.0,498.0,2036.0,-0.17,-3.41,9.61,0.05,-0.11,-0.03
2.0,1.0,3823898915.0,-3039.0,451.0,1964.0,-0.15,-3.41,9.61,0.05,-0.11,-0.03
2.0,1.0,3823885243.0,-3024.0,462.0,2011.0,-0.17,-3.41,9.61,0.05,-0.1,-0.03
3.0,1.0,73823242.0,-3762.0,922.0,-3647.0,1.05,1.4,4.62,-0.55,-1.53,-0.06
3.0,1.0,73809570.0,-3598.0,874.0,-3631.0,1.24,0.14,5.83,-0.49,-1.64,-0.11
3.0,1.0,73795899.0,-3441.0,834.0,-3525.0,1.22,-0.87,6.84,-0.44,-1.74,-0.13
3.0,1.0,73782227.0,-3284.0,790.0,-3481.0,1.95,-2.64,8.95,-0.45,-2.06,-0.1
3.0,1.0,73768555.0,-3144.0,769.0,-3397.0,1.98,-3.28,10.83,-0.52,-2.3,0.09
3.0,1.0,73754883.0,-2993.0,817.0,-3216.0,3.13,-1.59,18.31,-0.22,-2.38,0.37
3.0,1.0,73741211.0,-2944.0,828.0,-3121.0,3.53,0.5,24.0,0.06,-2.04,0.33
3.0,1.0,73727539.0,-2811.0,834.0,-2994.0,3.67,6.72,35.94,0.13,0.09,0.02
3.0,1.0,73713867.0,-2793.0,877.0,-2997.0,2.54,8.19,37.7,0.14,1.71,-0.0
3.0,1.0,73700195.0,-2868.0,861.0,-3164.0,1.79,9.5,35.82,1.12,4.06,-0.15
3.0,1.0,73686524.0,-3100.0,832.0,-3351.0,-1.17,6.9,20.16,1.67,3.83,-0.3
3.0,1.0,73672852.0,-3431.0,919.0,-3545.0,-0.36,5.11,12.73,1.89,3.52,-0.43
3.0,1.0,73659180.0,-3739.0,963.0,-3622.0,-1.29,0.04,-4.39,1.16,2.2,-0.44
3.0,1.0,73645508.0,-3973.0,1012.0,-3692.0,-0.9,-1.45,-8.87,0.65,1.39,-0.39
3.0,1.0,73631836.0,-4129.0,1017.0,-3709.0,-0.55,-3.44,-11.14,0.06,0.19,-0.34
3.0,1.0,73618164.0,-4208.0,988.0,-3672.0,-0.47,-3.54,-10.6,-0.17,-0.43,-0.24
3.0,1.0,73604492.0,-4139.0,971.0,-3704.0,-0.34,-2.88,-9.77,-0.49,-1.77,-0.2
3.0,1.0,73590820.0,-4038.0,930.0,-3704.0,-0.74,-3.11,-5.0,-0.65,-2.25,-0.12
3.0,1.0,73577149.0,-3839.0,901.0,-3759.0,-0.23,-3.45,-1.6,-0.67,-2.44,-0.07
3.0,1.0,73563477.0,-3635.0,887.0,-3714.0,0.31,-3.83,5.77,-0.66,-2.51,0.09
3.0,1.0,73549805.0,-3392.0,810.0,-3652.0,0.7,-3.6,9.63,-0.67,-2.58,0.24
3.0,1.0,73536133.0,-3010.0,544.0,-3538.0,2.0,-1.5,17.6,-0.41,-2.83,0.6
3.0,1.0,73522461.0,-2847.0,825.0,-3313.0,2.44,0.07,23.81,-0.23,-2.72,0.7
3.0,1.0,73508789.0,-2747.0,849.0,-3195.0,3.85,7.4,38.14,-0.01,-0.54,0.29
3.0,1.0,73495117.0,-2733.0,850.0,-3126.0,3.54,9.29,39.2,0.28,1.4,-0.03
3.0,1.0,73481445.0,-2774.0,856.0,-3163.0,1.98,10.51,39.2,0.38,3.05,-0.02
3.0,1.0,73467774.0,-2981.0,903.0,-3381.0,0.15,9.15,27.13,1.15,4.26,-0.38
3.0,1.0,73453125.0,-3507.0,936.0,-3669.0,0.23,6.47,16.56,1.65,3.61,-0.5
3.0,1.0,73439453.0,-3836.0,994.0,-3722.0,-0.69,-0.62,0.82,1.9,3.07,-0.43
3.0,1.0,73425781.0,-4142.0,1065.0,-3716.0,-0.66,-1.47,-5.21,1.29,2.47,-0.32
3.0,1.0,73412110.0,-4295.0,1106.0,-3687.0,-0.95,-4.13,-12.56,0.22,1.0,-0.17
3.0,1.0,73398438.0,-4439.0,1125.0,-3669.0,-0.91,-4.94,-13.23,-0.08,0.34,-0.02
3.0,1.0,73384766.0,-4487.0,1137.0,-3638.0,-0.72,-4.0,-11.89,-0.48,-1.04,0.16
3.0,1.0,73371094.0,-4436.0,1110.0,-3654.0,-0.75,-3.18,-10.07,-0.67,-1.7,0.22
3.0,1.0,73357422.0,-4254.0,1014.0,-3698.0,-0.73,-2.65,-7.1,-1.01,-2.2,0.23
3.0,1.0,73343750.0,-4042.0,1002.0,-3752.0,-0.48,-2.07,-0.32,-1.02,-2.72,0.19
3.0,1.0,73330078.0,-3759.0,925.0,-3797.0,-0.4,-2.15,3.43,-0.95,-2.85,0.21
3.0,1.0,73316406.0,-3495.0,898.0,-3750.0,0.54,-2.09,12.21,-0.75,-3.07,0.46
3.0,1.0,73302735.0,-3205.0,858.0,-3648.0,1.33,-0.66,17.4,-0.66,-3.19,0.55
3.0,1.0,73289063.0,-2953.0,887.0,-3452.0,3.65,4.08,31.93,-0.31,-2.17,0.43
3.0,1.0,73275391.0,-2768.0,904.0,-3289.0,4.26,6.85,38.31,0.12,-0.85,0.1
3.0,1.0,73261719.0,-2772.0,887.0,-3250.0,2.99,8.03,39.2,0.43,2.2,-0.05
3.0,1.0,73248047.0,-2871.0,921.0,-3290.0,2.36,9.84,36.84,0.56,3.05,-0.25
3.0,1.0,73234375.0,-3106.0,929.0,-3480.0,1.75,7.2,27.9,0.92,3.37,-0.4
3.0,1.0,73220703.0,-3425.0,940.0,-3679.0,0.98,0.73,11.05,1.68,2.79,-0.35
3.0,1.0,73207031.0,-3711.0,1025.0,-3757.0,0.68,-1.19,3.82,1.57,2.54,-0.29
3.0,1.0,73193360.0,-4028.0,1102.0,-3763.0,0.51,-2.92,-5.35,0.73,1.63,-0.13
3.0,1.0,73179688.0,-4259.0,1139.0,-3720.0,0.48,-3.12,-7.64,0.38,1.14,-0.04
3.0,1.0,73166016.0,-4343.0,1171.0,-3631.0,0.39,-1.66,-9.21,-0.05,0.23,0.04
3.0,1.0,73152344.0,-4375.0,1139.0,-3670.0,-0.09,-0.74,-9.47,-0.29,-0.36,0.06
3.0,1.0,73138672.0,-4351.0,1116.0,-3665.0,-0.17,0.07,-8.94,-0.49,-0.94,0.06
3.0,1.0,73124024.0,-4235.0,1084.0,-3736.0,-0.51,0.73,-4.58,-0.82,-1.84,0.01
3.0,1.0,73110352.0,-3969.0,1034.0,-3766.0,-0.95,0.34,-2.49,-0.88,-2.18,-0.01
3.0,1.0,73095703.0,-3744.0,976.0,-3794.0,-0.7,-1.14,3.2,-0.86,-2.53,0.02
3.0,1.0,73082031.0,-3468.0,901.0,-3759.0,-0.21,-1.99,6.6,-0.88,-2.48,0.06
3.0,1.0,73068360.0,-3211.0,846.0,-3675.0,0.81,-3.7,12.89,-0.79,-2.58,0.3
3.0,1.0,73054688.0,-2960.0,823.0,-3527.0,1.56,-3.43,16.23,-0.71,-2.73,0.52
3.0,1.0,73041016.0,-2789.0,851.0,-3304.0,3.35,-0.13,27.72,-0.33,-2.28,0.53
3.0,1.0,73027344.0,-2645.0,861.0,-2990.0,4.58,3.92,35.78,-0.12,-1.44,0.38
3.0,1.0,73013672.0,-2630.0,921.0,-2910.0,3.12,9.03,39.2,0.2,1.26,0.03
3.0,1.0,73000000.0,-2612.0,909.0,-2989.0,2.73,11.51,39.2,0.25,2.61,-0.12
3.0,1.0,72986328.0,-2769.0,879.0,-3224.0,1.54,11.09,37.05,0.47,3.45,-0.36
3.0,1.0,72972656.0,-3057.0,910.0,-3466.0,-0.01,5.13,17.68,1.41,3.69,-0.61
3.0,1.0,72958985.0,-3455.0,926.0,-3714.0,-0.5,1.74,9.34,1.92,3.25,-0.65
3.0,1.0,72945313.0,-3851.0,982.0,-3757.0,-0.49,-1.79,-3.7,1.34,2.78,-0.63
3.0,1.0,72931641.0,-4290.0,1079.0,-3705.0,-0.81,-3.6,-8.9,0.8,2.23,-0.55
3.0,1.0,72917969.0,-4475.0,1098.0,-3718.0,-1.07,-5.98,-14.33,0.3,1.01,-0.2
3.0,1.0,72904297.0,-4562.0,1135.0,-3679.0,-1.01,-5.01,-14.64,0.14,0.36,-0.03
3.0,1.0,72890625.0,-4552.0,1154.0,-3633.0,-1.37,-3.82,-14.75,-0.24,-1.0,0.11
3.0,1.0,72876953.0,-4509.0,1130.0,-3710.0,-1.81,-0.27,-10.67,-0.54,-1.67,0.33
3.0,1.0,72863281.0,-4349.0,1120.0,-3728.0,-2.1,0.64,-7.7,-0.77,-2.01,0.33
3.0,1.0,72849610.0,-4035.0,1068.0,-3835.0,-2.09,1.76,-1.14,-0.99,-2.64,0.28
3.0,1.0,72835938.0,-3692.0,964.0,-3906.0,-1.63,1.33,3.39,-0.92,-2.76,0.25
3.0,1.0,72822266.0,-3352.0,901.0,-3877.0,-0.14,0.39,11.21,-0.86,-2.82,0.2
3.0,1.0,72808594.0,-3054.0,828.0,-3688.0,0.7,-0.24,14.96,-0.87,-2.94,0.2
3.0,1.0,72794922.0,-2781.0,808.0,-3440.0,3.48,-0.36,19.33,-0.74,-2.63,0.27
3.0,1.0,72781250.0,-2637.0,835.0,-3136.0,5.25,1.61,32.89,-0.45,-2.04,0.17
3.0,1.0,72767578.0,-2554.0,832.0,-2898.0,5.7,4.02,38.78,-0.21,-1.1,0.06
3.0,1.0,72753906.0,-2509.0,807.0,-2742.0,4.79,7.05,39.2,0.29,1.61,-0.2
3.0,1.0,72740235.0,-2549.0,797.0,-2955.0,4.11,8.65,39.2,0.46,2.81,-0.35
3.0,1.0,72726563.0,-2739.0,816.0,-3277.0,1.61,4.94,24.53,1.33,3.4,-0.61
3.0,1.0,72712891.0,-3081.0,807.0,-3559.0,0.66,1.57,15.7,1.62,3.35,-0.55
3.0,1.0,72699219.0,-3489.0,897.0,-3778.0,-0.48,-1.81,-1.34,1.31,2.54,-0.49
3.0,1.0,72685547.0,-3861.0,979.0,-3848.0,-1.25,-2.99,-6.75,0.95,2.04,-0.44
3.0,1.0,72671875.0,-4102.0,1037.0,-3871.0,-1.73,-3.49,-10.33,0.63,1.47,-0.38
3.0,1.0,72658203.0,-4302.0,1078.0,-3771.0,-2.43,-3.09,-13.54,0.23,0.26,-0.18
3.0,1.0,72644531.0,-4338.0,1109.0,-3802.0,-2.64,-2.1,-13.51,0.11,-0.44,-0.1
3.0,1.0,72630860.0,-4257.0,1102.0,-3828.0,-2.66,-0.02,-10.22,-0.31,-1.77,0.02
3.0,1.0,72617188.0,-4124.0,1111.0,-3868.0,-1.98,0.53,-6.87,-0.59,-2.12,-0.0
3.0,1.0,72603516.0,-3887.0,1049.0,-3889.0,-1.6,-0.09,-0.24,-0.86,-2.68,0.05
3.0,1.0,72589844.0,-3599.0,970.0,-3904.0,-0.84,-0.7,4.0,-0.84,-2.65,0.05
3.0,1.0,72576172.0,-3160.0,894.0,-3843.0,0.03,-1.0,7.85,-0.97,-3.14,0.17
3.0,1.0,72562500.0,-2856.0,835.0,-3589.0,1.84,-1.89,15.72,-0.94,-3.29,0.26
3.0,1.0,72548828.0,-2611.0,830.0,-3349.0,2.65,-1.38,22.06,-0.8,-3.04,0.37
3.0,1.0,72535156.0,-2528.0,845.0,-3119.0,4.66,4.15,37.79,-0.15,-1.63,0.08
3.0,1.0,72521485.0,-2474.0,843.0,-2993.0,4.13,5.85,39.2,-0.06,-0.35,0.03
3.0,1.0,72507813.0,-2452.0,832.0,-2954.0,2.96,8.69,39.2,0.11,2.91,-0.22
3.0,1.0,72494141.0,-2562.0,816.0,-3155.0,1.9,7.0,36.09,0.7,3.75,-0.39
3.0,1.0,72480469.0,-3025.0,859.0,-3578.0,0.19,2.14,25.06,2.02,3.29,-0.35
3.0,1.0,72466797.0,-3462.0,952.0,-3740.0,0.08,-0.59,5.31,2.02,2.86,-0.37
3.0,1.0,72453125.0,-3771.0,1064.0,-3829.0,-0.09,-2.04,-2.29,1.53,2.42,-0.31
3.0,1.0,72439453.0,-4084.0,1119.0,-3829.0,-0.66,-2.95,-10.29,0.47,1.24,-0.14
3.0,1.0,72425781.0,-4234.0,1171.0,-3801.0,-0.71,-2.96,-12.14,0.19,0.7,-0.06
3.0,1.0,72412110.0,-4320.0,1178.0,-3806.0,-1.09,-0.82,-12.79,-0.27,-0.72,-0.01
3.0,1.0,72398438.0,-4301.0,1149.0,-3776.0,-1.39,-0.19,-11.85,-0.55,-1.48,0.07
3.0,1.0,72384766.0,-4125.0,1069.0,-3814.0,-0.99,0.94,-6.3,-0.99,-2.35,-0.03
3.0,1.0,72371094.0,-3897.0,1012.0,-3897.0,-1.25,0.74,-4.66,-1.13,-2.67,-0.06
3.0,1.0,72357422.0,-3653.0,948.0,-3936.0,-1.1,0.72,-1.24,-1.41,-2.92,-0.13
3.0,1.0,72343750.0,-3309.0,858.0,-3831.0,-1.13,-1.55,5.37,-1.37,-3.3,-0.15
3.0,1.0,72330078.0,-2983.0,795.0,-3727.0,-1.11,-2.5,10.0,-1.22,-3.68,0.01
3.0,1.0,72316406.0,-2656.0,727.0,-3530.0,-0.59,-2.45,21.22,-0.89,-3.64,0.44
3.0,1.0,72302735.0,-2427.0,766.0,-3191.0,1.13,0.61,30.07,-0.59,-3.0,0.28
3.0,1.0,72289063.0,-2352.0,787.0,-2870.0,1.31,6.66,39.2,-0.18,-0.5,0.03
3.0,1.0,72275391.0,-2310.0,771.0,-2799.0,0.84,9.77,39.2,-0.21,0.95,-0.04
3.0,1.0,72261719.0,-2375.0,801.0,-2930.0,0.56,10.72,39.2,0.49,3.09,-0.48
3.0,1.0,72248047.0,-2516.0,783.0,-3186.0,-0.62,5.35,28.51,1.13,3.16,-0.42
3.0,1.0,72234375.0,-2778.0,800.0,-3531.0,-0.76,0.78,18.84,1.62,3.23,-0.19
3.0,1.0,72220703.0,-3160.0,834.0,-3771.0,-0.14,-2.78,3.79,1.69,2.81,-0.02
3.0,1.0,72207031.0,-3683.0,997.0,-3977.0,-0.1,-3.1,-2.31,1.26,2.62,0.04
3.0,1.0,72193360.0,-3966.0,1069.0,-3919.0,-0.27,-2.62,-11.97,0.5,1.52,0.17
3.0,1.0,72179688.0,-4132.0,1100.0,-3905.0,-0.04,-0.91,-14.87,0.26,0.74,0.15
3.0,1.0,72165039.0,-4167.0,1078.0,-3900.0,-0.02,1.73,-15.94,-0.34,-0.98,-0.13
3.0,1.0,72151367.0,-4130.0,1095.0,-3888.0,-1.05,2.1,-14.36,-0.74,-1.84,-0.14
3.0,1.0,72137695.0,-4000.0,1053.0,-3954.0,-1.09,1.81,-10.57,-1.39,-2.49,-0.42
3.0,1.0,72124024.0,-3625.0,969.0,-4044.0,-2.04,0.56,-3.48,-1.62,-2.73,-0.38
3.0,1.0,72110352.0,-3283.0,826.0,-4019.0,-2.12,-0.65,0.94,-1.7,-2.94,-0.33
3.0,1.0,72096680.0,-2892.0,778.0,-3922.0,-2.17,-2.18,10.97,-1.52,-3.67,0.06
3.0,1.0,72083008.0,-2530.0,694.0,-3724.0,-1.33,-2.35,16.52,-1.21,-3.82,0.26
3.0,1.0,72069336.0,-2273.0,676.0,-3416.0,0.49,1.84,33.93,-0.7,-2.59,0.13
3.0,1.0,72055664.0,-2141.0,703.0,-3082.0,0.74,5.18,39.2,-0.81,-1.05,0.04
3.0,1.0,72041992.0,-2080.0,670.0,-2981.0,0.03,10.91,39.2,-0.69,2.86,-0.47
3.0,1.0,72028320.0,-2146.0,658.0,-3092.0,-0.76,11.07,39.2,-0.31,4.13,-0.55
3.0,1.0,72014649.0,-2418.0,629.0,-3492.0,-0.81,10.81,38.13,0.97,4.71,-0.74
3.0,1.0,72000977.0,-2889.0,625.0,-3787.0,-2.5,4.52,17.93,1.41,4.74,-0.94
3.0,1.0,71987305.0,-3402.0,698.0,-3963.0,-1.62,1.45,10.25,1.6,4.17,-0.92
3.0,1.0,71973633.0,-3927.0,799.0,-4093.0,-1.45,-1.98,-4.22,1.25,3.49,-0.93
3.0,1.0,71959961.0,-4291.0,914.0,-3949.0,-1.76,-3.2,-10.61,1.1,2.75,-0.86
3.0,1.0,71946289.0,-4652.0,1003.0,-3819.0,-1.5,-3.06,-17.23,0.85,0.88,-0.79
3.0,1.0,71932617.0,-4740.0,1082.0,-3762.0,-2.08,-2.53,-18.78,0.57,-0.28,-0.73
3.0,1.0,71918945.0,-4726.0,1095.0,-3758.0,-2.39,-2.77,-18.92,-0.3,-2.19,-0.44
3.0,1.0,71905274.0,-4602.0,1118.0,-3829.0,-2.19,-0.24,-13.57,-0.65,-2.94,-0.44
3.0,1.0,71891602.0,-4400.0,1058.0,-3945.0,-1.9,0.74,-9.01,-0.94,-3.07,-0.48
3.0,1.0,71877930.0,-4128.0,1019.0,-4022.0,-2.09,2.2,-1.14,-1.02,-3.41,-0.36
3.0,1.0,71864258.0,-3769.0,917.0,-4092.0,-1.6,2.6,3.44,-0.96,-3.5,-0.31
3.0,1.0,71850586.0,-3136.0,754.0,-4141.0,-0.91,2.46,11.75,-0.83,-3.24,-0.01
3.0,1.0,71835938.0,-2711.0,674.0,-4017.0,-0.6,2.65,15.7,-0.71,-3.0,0.11
3.0,1.0,71822266.0,-2354.0,614.0,-3757.0,0.59,2.85,21.9,-0.5,-2.09,0.03
3.0,1.0,71808594.0,-2118.0,620.0,-3452.0,1.04,3.0,23.71,-0.46,-1.36,0.04
3.0,1.0,71794922.0,-2009.0,602.0,-3117.0,1.71,2.97,24.85,-0.23,-0.13,-0.1
3.0,1.0,71781250.0,-2058.0,669.0,-2781.0,1.7,2.85,23.53,-0.08,0.13,-0.22
3.0,1.0,71767578.0,-2093.0,692.0,-2521.0,1.44,2.25,21.63,-0.03,0.22,-0.31
3.0,1.0,71753906.0,-2118.0,691.0,-2441.0,1.07,0.62,17.04,-0.06,0.33,-0.26
3.0,1.0,71740235.0,-2126.0,700.0,-2399.0,1.1,0.21,15.17,-0.1,0.35,-0.17
3.0,1.0,71726563.0,-2111.0,684.0,-2339.0,0.82,0.56,12.08,-0.14,0.26,0.0
3.0,1.0,71712891.0,-2123.0,669.0,-2436.0,0.73,0.87,11.13,-0.16,0.18,0.03
3.0,1.0,71699219.0,-2088.0,651.0,-2434.0,0.31,1.58,10.16,-0.05,0.0,-0.01
3.0,1.0,71685547.0,-2026.0,685.0,-2518.0,0.43,1.58,9.91,-0.01,-0.06,-0.03
3.0,1.0,71671875.0,-2030.0,627.0,-2494.0,0.35,1.48,9.78,-0.03,-0.06,-0.03
3.0,1.0,71658203.0,-2008.0,657.0,-2485.0,0.58,1.32,10.09,0.0,-0.01,-0.05
3.0,1.0,71644531.0,-1980.0,630.0,-2488.0,0.69,1.31,10.05,0.0,0.01,-0.06
3.0,1.0,71630860.0,-2011.0,600.0,-2552.0,0.72,1.35,10.07,-0.01,0.0,-0.08
3.0,1.0,71617188.0,-1982.0,605.0,-2579.0,0.86,1.16,10.04,0.04,-0.03,-0.11
3.0,1.0,71603516.0,-1994.0,580.0,-2587.0,0.54,1.03,9.65,0.1,0.02,-0.01
3.0,1.0,71589844.0,-1994.0,595.0,-2628.0,0.76,1.11,9.88,0.13,0.03,-0.02
3.0,1.0,71576172.0,-1992.0,608.0,-2709.0,0.78,1.16,9.84,0.23,0.0,-0.04
3.0,1.0,71562500.0,-2010.0,597.0,-2733.0,0.77,1.28,9.73,0.28,0.0,-0.06
3.0,1.0,71548828.0,-2019.0,590.0,-2748.0,0.88,1.33,9.72,0.37,0.01,-0.1
3.0,1.0,71535156.0,-2007.0,648.0,-2823.0,0.96,1.39,9.74,0.54,-0.0,-0.22
3.0,1.0,71521485.0,-2011.0,657.0,-2821.0,0.95,1.47,9.58,0.51,-0.03,-0.22
3.0,1.0,71507813.0,-2017.0,642.0,-2838.0,0.88,1.47,9.42,0.21,-0.05,-0.16
3.0,1.0,71494141.0,-2023.0,648.0,-2882.0,0.92,1.32,9.5,0.16,-0.04,-0.14
3.0,1.0,71480469.0,-2002.0,650.0,-2880.0,0.97,1.26,9.47,0.18,-0.05,-0.12
3.0,1.0,71466797.0,-1991.0,661.0,-2917.0,0.98,1.3,9.56,0.12,-0.06,-0.08
3.0,1.0,71453125.0,-2022.0,648.0,-2907.0,0.98,1.28,9.73,0.03,-0.06,-0.05
3.0,1.0,71439453.0,-2035.0,665.0,-2982.0,1.03,1.15,9.93,0.0,-0.06,-0.04
3.0,1.0,71425781.0,-1998.0,671.0,-2948.0,1.02,1.14,9.87,0.01,-0.07,-0.04
3.0,1.0,71412110.0,-2017.0,662.0,-2950.0,1.0,1.11,9.84,0.04,-0.1,-0.04
3.0,1.0,71398438.0,-2011.0,657.0,-2924.0,1.02,1.12,9.85,0.05,-0.12,-0.04
3.0,1.0,71384766.0,-1996.0,656.0,-2908.0,1.01,1.08,9.95,0.03,-0.12,-0.04
3.0,1.0,71371094.0,-2003.0,648.0,-2879.0,0.99,1.06,10.02,0.03,-0.11,-0.04
3.0,1.0,71357422.0,-2051.0,636.0,-2933.0,0.98,1.06,10.07,0.02,-0.1,-0.04
3.0,1.0,71343750.0,-2003.0,656.0,-2961.0,0.95,1.09,10.11,0.02,-0.09,-0.03
3.0,1.0,71330078.0,-2022.0,653.0,-2909.0,0.97,1.11,10.11,0.01,-0.08,-0.03
3.0,1.0,71316406.0,-2023.0,633.0,-2860.0,0.98,1.13,10.07,0.03,-0.07,-0.03
3.0,1.0,71302735.0,-2036.0,631.0,-2896.0,0.98,1.11,10.01,0.04,-0.08,-0.03
3.0,1.0,71289063.0,-2020.0,630.0,-2896.0,1.0,1.1,9.92,0.05,-0.1,-0.03
3.0,1.0,71275391.0,-2002.0,643.0,-2930.0,1.03,1.09,9.9,0.05,-0.1,-0.03
3.0,1.0,71261719.0,-2023.0,594.0,-2919.0,1.03,1.09,9.89,0.04,-0.1,-0.03
3.0,1.0,71248047.0,-1995.0,645.0,-2920.0,1.01,1.09,9.88,0.04,-0.11,-0.03
3.0,1.0,71234375.0,-2003.0,638.0,-2892.0,1.02,1.13,9.91,0.05,-0.11,-0.03
3.0,1.0,71220703.0,-2018.0,642.0,-2915.0,1.0,1.14,9.95,0.04,-0.11,-0.03
3.0,1.0,71207031.0,-1998.0,640.0,-2932.0,1.01,1.15,9.95,0.04,-0.09,-0.03
3.0,1.0,71193360.0,-2012.0,648.0,-2946.0,1.01,1.2,9.94,0.03,-0.09,-0.03
3.0,1.0,71179688.0,-2014.0,623.0,-2926.0,1.0,1.17,9.89,0.03,-0.11,-0.03
3.0,1.0,71166016.0,-2035.0,614.0,-2953.0,1.0,1.08,9.89,0.03,-0.11,-0.02
3.0,1.0,71152344.0,-2022.0,644.0,-2929.0,1.02,1.08,9.92,0.04,-0.11,-0.02
3.0,1.0,71138672.0,-2015.0,619.0,-2848.0,1.01,1.09,9.95,0.03,-0.11,-0.02
3.0,1.0,71125000.0,-1987.0,600.0,-2883.0,0.99,1.1,9.97,0.02,-0.11,-0.02
3.0,1.0,71111328.0,-1986.0,618.0,-2880.0,0.99,1.1,9.99,0.01,-0.1,-0.02
3.0,1.0,71097656.0,-1960.0,610.0,-2844.0,0.98,1.05,10.03,0.01,-0.09,-0.01
