data_num,trick_type,time,mag_x,mag_y,mag_z,acc_x,acc_y,acc_z,gyro_x,gyro_y,gyro_z
1.0,1.0,11719.0,-4954.0,8831.0,-6604.0,-0.12,9.72,0.4,0.05,-0.12,-0.03
1.0,1.0,25391.0,-4992.0,8874.0,-6533.0,-0.13,9.73,0.4,0.05,-0.12,-0.03
1.0,1.0,39062.0,-4908.0,8818.0,-6468.0,-0.12,9.77,0.39,0.05,-0.12,-0.03
1.0,1.0,52734.0,-4913.0,8792.0,-6604.0,-0.13,9.77,0.39,0.05,-0.12,-0.03
1.0,1.0,66406.0,-4975.0,8794.0,-6633.0,-0.12,9.74,0.39,0.05,-0.12,-0.03
1.0,1.0,80078.0,-5007.0,8763.0,-6635.0,-0.12,9.74,0.4,0.05,-0.12,-0.03
1.0,1.0,93750.0,-4977.0,8829.0,-6556.0,-0.13,9.74,0.39,0.05,-0.12,-0.03
1.0,1.0,107422.0,-4969.0,8875.0,-6533.0,-0.13,9.72,0.39,0.05,-0.12,-0.03
1.0,1.0,121094.0,-4919.0,8793.0,-6515.0,-0.13,9.73,0.39,0.05,-0.12,-0.03
1.0,1.0,134766.0,-4896.0,8744.0,-6625.0,-0.12,9.73,0.4,0.05,-0.12,-0.03
1.0,1.0,148437.0,-4976.0,8784.0,-6596.0,-0.13,9.75,0.4,0.05,-0.12,-0.03
1.0,1.0,162109.0,-4984.0,8862.0,-6510.0,-0.12,9.73,0.39,0.06,-0.12,-0.03
1.0,1.0,175781.0,-4965.0,8814.0,-6572.0,-0.13,9.73,0.4,0.05,-0.12,-0.03
1.0,1.0,189453.0,-4965.0,8829.0,-6457.0,-0.13,9.73,0.38,0.05,-0.12,-0.03
1.0,1.0,203125.0,-4884.0,8781.0,-6527.0,-0.13,9.73,0.4,0.05,-0.12,-0.03
1.0,1.0,216797.0,-4921.0,8745.0,-6599.0,-0.13,9.74,0.4,0.05,-0.12,-0.03
1.0,1.0,230469.0,-4982.0,8785.0,-6596.0,-0.13,9.74,0.39,0.05,-0.12,-0.03
1.0,1.0,244141.0,-4954.0,8872.0,-6491.0,-0.13,9.75,0.39,0.05,-0.12,-0.03
1.0,1.0,257812.0,-4900.0,8814.0,-6512.0,-0.12,9.74,0.39,0.05,-0.12,-0.03
1.0,1.0,271484.0,-4955.0,8834.0,-6498.0,-0.12,9.74,0.39,0.05,-0.12,-0.03
1.0,1.0,285156.0,-4871.0,8785.0,-6504.0,-0.13,9.72,0.4,0.05,-0.12,-0.03
1.0,1.0,298828.0,-4880.0,8739.0,-6610.0,-0.13,9.73,0.41,0.05,-0.12,-0.03
1.0,1.0,312500.0,-4988.0,8821.0,-6564.0,-0.12,9.72,0.4,0.05,-0.12,-0.03
1.0,1.0,326172.0,-4984.0,8870.0,-6470.0,-0.12,9.73,0.39,0.05,-0.12,-0.03
1.0,1.0,339844.0,-4896.0,8810.0,-6508.0,-0.13,9.74,0.39,0.05,-0.12,-0.03
1.0,1.0,353516.0,-4870.0,8789.0,-6450.0,-0.12,9.75,0.4,0.05,-0.12,-0.03
1.0,1.0,367187.0,-4887.0,8790.0,-6498.0,-0.12,9.76,0.39,0.05,-0.12,-0.03
1.0,1.0,380859.0,-4912.0,8750.0,-6581.0,-0.13,9.73,0.4,0.05,-0.12,-0.03
1.0,1.0,394531.0,-4964.0,8842.0,-6621.0,-0.13,9.72,0.39,0.05,-0.12,-0.03
1.0,1.0,408203.0,-4936.0,8880.0,-6468.0,-0.13,9.72,0.39,0.05,-0.12,-0.03
1.0,1.0,422852.0,-4907.0,8799.0,-6503.0,-0.12,9.74,0.4,0.05,-0.12,-0.03
1.0,1.0,436523.0,-4936.0,8826.0,-6463.0,-0.11,9.73,0.39,0.05,-0.12,-0.03
1.0,1.0,450195.0,-4885.0,8778.0,-6555.0,-0.11,9.74,0.39,0.05,-0.12,-0.03
1.0,1.0,463867.0,-4939.0,8791.0,-6663.0,-0.12,9.73,0.39,0.05,-0.12,-0.03
1.0,1.0,477539.0,-4983.0,8869.0,-6591.0,-0.12,9.74,0.39,0.05,-0.12,-0.03
1.0,1.0,491211.0,-4942.0,8848.0,-6449.0,-0.13,9.73,0.39,0.05,-0.12,-0.03
1.0,1.0,504883.0,-4876.0,8781.0,-6551.0,-0.11,9.72,0.4,0.05,-0.12,-0.03
1.0,1.0,518555.0,-4930.0,8779.0,-6674.0,-0.12,9.72,0.4,0.05,-0.12,-0.03
1.0,1.0,532227.0,-4876.0,8775.0,-6621.0,-0.13,9.74,0.39,0.05,-0.12,-0.03
1.0,1.0,545898.0,-4924.0,8794.0,-6668.0,-0.13,9.75,0.4,0.05,-0.12,-0.03
1.0,1.0,559570.0,-4979.0,8888.0,-6572.0,-0.13,9.73,0.4,0.05,-0.12,-0.03
1.0,1.0,573242.0,-4957.0,8838.0,-6504.0,-0.12,9.73,0.39,0.05,-0.12,-0.03
1.0,1.0,586914.0,-4872.0,8778.0,-6591.0,-0.13,9.73,0.4,0.05,-0.12,-0.03
1.0,1.0,601562.0,-4911.0,8793.0,-6677.0,-0.13,9.74,0.39,0.05,-0.12,-0.03
1.0,1.0,615234.0,-4898.0,8751.0,-6632.0,-0.13,9.72,0.39,0.05,-0.12,-0.03
1.0,1.0,628906.0,-4936.0,8805.0,-6607.0,-0.12,9.73,0.4,0.05,-0.12,-0.03
1.0,1.0,642578.0,-4990.0,8861.0,-6525.0,-0.12,9.75,0.4,0.05,-0.12,-0.03
1.0,1.0,656250.0,-4911.0,8831.0,-6497.0,-0.13,9.75,0.39,0.05,-0.12,-0.03
1.0,1.0,669922.0,-4862.0,8788.0,-6594.0,-0.12,9.73,0.39,0.05,-0.12,-0.03
1.0,1.0,683594.0,-4925.0,8798.0,-6621.0,-0.12,9.73,0.4,0.05,-0.12,-0.03
1.0,1.0,697266.0,-4985.0,8842.0,-6619.0,-0.13,9.74,0.39,0.06,-0.12,-0.03
1.0,1.0,710937.0,-4986.0,8833.0,-6605.0,-0.13,9.74,0.4,0.05,-0.12,-0.03
1.0,1.0,724609.0,-4985.0,8881.0,-6490.0,-0.12,9.73,0.4,0.05,-0.12,-0.03
1.0,1.0,738281.0,-4880.0,8811.0,-6499.0,-0.12,9.74,0.39,0.05,-0.12,-0.03
1.0,1.0,751953.0,-4849.0,8774.0,-6658.0,-0.12,9.74,0.4,0.05,-0.12,-0.03
1.0,1.0,765625.0,-4891.0,8778.0,-6675.0,-0.12,9.73,0.4,0.05,-0.12,-0.03
1.0,1.0,779297.0,-4975.0,8866.0,-6574.0,-0.12,9.73,0.4,0.05,-0.12,-0.03
1.0,1.0,792969.0,-4941.0,8803.0,-6615.0,-0.12,9.73,0.4,0.05,-0.12,-0.03
1.0,1.0,806641.0,-4990.0,8840.0,-6505.0,-0.13,9.74,0.4,0.05,-0.12,-0.03
1.0,1.0,820312.0,-4886.0,8785.0,-6543.0,-0.13,9.74,0.4,0.05,-0.12,-0.03
1.0,1.0,833984.0,-4927.0,8757.0,-6600.0,-0.12,9.74,0.39,0.05,-0.12,-0.03
1.0,1.0,847656.0,-4991.0,8789.0,-6603.0,-0.12,9.73,0.39,0.05,-0.12,-0.03
1.0,1.0,861328.0,-5016.0,8856.0,-6547.0,-0.12,9.73,0.4,0.05,-0.12,-0.03
1.0,1.0,875000.0,-4949.0,8842.0,-6524.0,-0.12,9.73,0.4,0.05,-0.12,-0.03
1.0,1.0,888672.0,-4989.0,8881.0,-6499.0,-0.12,9.73,0.4,0.05,-0.12,-0.03
1.0,1.0,902344.0,-4903.0,8794.0,-6513.0,-0.11,9.73,0.39,0.05,-0.12,-0.03
1.0,1.0,916016.0,-4934.0,8804.0,-6628.0,-0.13,9.74,0.4,0.05,-0.12,-0.03
1.0,1.0,929687.0,-4978.0,8824.0,-6641.0,-0.13,9.75,0.39,0.05,-0.12,-0.03
1.0,1.0,943359.0,-4969.0,8885.0,-6495.0,-0.13,9.75,0.39,0.05,-0.12,-0.03
1.0,1.0,957031.0,-4953.0,8828.0,-6498.0,-0.13,9.73,0.4,0.05,-0.12,-0.03
1.0,1.0,970703.0,-4903.0,8780.0,-6624.0,-0.13,9.73,0.39,0.05,-0.12,-0.03
1.0,1.0,984375.0,-4897.0,8809.0,-6535.0,-0.12,9.74,0.39,0.05,-0.12,-0.03
1.0,1.0,998047.0,-4898.0,8760.0,-6684.0,-0.12,9.73,0.38,0.05,-0.12,-0.03
1.0,1.0,1011719.0,-4981.0,8837.0,-6602.0,-0.13,9.73,0.4,0.05,-0.12,-0.03
1.0,1.0,1025391.0,-4967.0,8836.0,-6514.0,-0.12,9.75,0.39,0.05,-0.12,-0.03
1.0,1.0,1039062.0,-4895.0,8795.0,-6505.0,-0.12,9.74,0.39,0.05,-0.12,-0.03
1.0,1.0,1053711.0,-4889.0,8745.0,-6569.0,-0.13,9.73,0.39,0.05,-0.12,-0.03
1.0,1.0,1067383.0,-4859.0,8754.0,-6553.0,-0.13,9.73,0.39,0.05,-0.12,-0.03
1.0,1.0,1081055.0,-4909.0,8793.0,-6624.0,-0.13,9.73,0.4,0.05,-0.12,-0.03
1.0,1.0,1094727.0,-4977.0,8829.0,-6572.0,-0.12,9.74,0.39,0.05,-0.12,-0.03
1.0,1.0,1108398.0,-4948.0,8858.0,-6496.0,-0.12,9.73,0.39,0.05,-0.12,-0.03
1.0,1.0,1122070.0,-4901.0,8770.0,-6508.0,-0.12,9.74,0.4,0.05,-0.12,-0.03
1.0,1.0,1135742.0,-4888.0,8737.0,-6607.0,-0.12,9.74,0.39,0.05,-0.12,-0.03
1.0,1.0,1149414.0,-4985.0,8761.0,-6588.0,-0.12,9.74,0.4,0.05,-0.12,-0.03
1.0,1.0,1163086.0,-4902.0,8765.0,-6695.0,-0.12,9.72,0.39,0.05,-0.12,-0.03
1.0,1.0,1176758.0,-4975.0,8847.0,-6601.0,-0.14,9.73,0.39,0.05,-0.12,-0.03
1.0,1.0,1190430.0,-4934.0,8824.0,-6526.0,-0.12,9.74,0.39,0.05,-0.12,-0.03
1.0,1.0,1204102.0,-4837.0,8758.0,-6566.0,-0.13,9.74,0.39,0.05,-0.12,-0.03
1.0,1.0,1217773.0,-4856.0,8729.0,-6622.0,-0.12,9.74,0.38,0.05,-0.12,-0.03
1.0,1.0,1231445.0,-4944.0,8803.0,-6597.0,-0.12,9.74,0.38,0.05,-0.12,-0.03
1.0,1.0,1245117.0,-4925.0,8760.0,-6600.0,-0.12,9.73,0.39,0.05,-0.12,-0.03
1.0,1.0,1258789.0,-4972.0,8843.0,-6581.0,-0.13,9.74,0.4,0.05,-0.12,-0.03
1.0,1.0,1272461.0,-4915.0,8833.0,-6500.0,-0.13,9.73,0.39,0.05,-0.12,-0.03
1.0,1.0,1286133.0,-4874.0,8760.0,-6547.0,-0.13,9.73,0.4,0.05,-0.12,-0.03
1.0,1.0,1299805.0,-4898.0,8739.0,-6646.0,-0.12,9.73,0.38,0.05,-0.12,-0.03
1.0,1.0,1313477.0,-4996.0,8847.0,-6589.0,-0.13,9.74,0.39,0.05,-0.12,-0.03
1.0,1.0,1327148.0,-4968.0,8846.0,-6491.0,-0.12,9.75,0.4,0.05,-0.12,-0.03
1.0,1.0,1340820.0,-4987.0,8887.0,-6575.0,-0.12,9.75,0.38,0.05,-0.12,-0.03
1.0,1.0,1354492.0,-4935.0,8805.0,-6511.0,-0.12,9.74,0.39,0.05,-0.12,-0.03
1.0,1.0,1368164.0,-4896.0,8745.0,-6587.0,-0.12,9.74,0.4,0.05,-0.12,-0.03
1.0,1.0,1382812.0,-4966.0,8808.0,-6684.0,-0.14,9.73,0.39,0.05,-0.12,-0.03
1.0,1.0,1396484.0,-4966.0,8849.0,-6558.0,-0.13,9.73,0.4,0.05,-0.12,-0.03
1.0,1.0,1410156.0,-4943.0,8846.0,-6515.0,-0.12,9.74,0.4,0.05,-0.12,-0.03
1.0,1.0,1423828.0,-4999.0,8878.0,-6565.0,-0.13,9.74,0.39,0.05,-0.12,-0.03
1.0,1.0,1437500.0,-4929.0,8817.0,-6519.0,-0.12,9.74,0.4,0.05,-0.12,-0.03
1.0,1.0,1451172.0,-4915.0,8778.0,-6629.0,-0.12,9.74,0.4,0.05,-0.12,-0.03
1.0,1.0,1464844.0,-4961.0,8811.0,-6646.0,-0.13,9.74,0.39,0.05,-0.12,-0.03
1.0,1.0,1478516.0,-4977.0,8871.0,-6550.0,-0.11,9.74,0.39,0.05,-0.12,-0.03
1.0,1.0,1492187.0,-4937.0,8840.0,-6534.0,-0.12,9.73,0.39,0.05,-0.12,-0.03
1.0,1.0,1505859.0,-4872.0,8868.0,-6525.0,-0.12,9.74,0.39,0.05,-0.12,-0.03
1.0,1.0,1519531.0,-4907.0,8802.0,-6553.0,-0.12,9.73,0.39,0.05,-0.12,-0.03
1.0,1.0,1533203.0,-4897.0,8774.0,-6613.0,-0.12,9.72,0.38,0.05,-0.12,-0.03
1.0,1.0,1546875.0,-4960.0,8804.0,-6640.0,-0.13,9.73,0.39,0.05,-0.12,-0.03
1.0,1.0,1560547.0,-4971.0,8838.0,-6558.0,-0.13,9.74,0.39,0.05,-0.12,-0.03
1.0,1.0,1574219.0,-4893.0,8811.0,-6503.0,-0.12,9.74,0.39,0.05,-0.12,-0.03
1.0,1.0,1587891.0,-4882.0,8751.0,-6549.0,-0.12,9.74,0.39,0.05,-0.12,-0.03
1.0,1.0,1601562.0,-4880.0,8800.0,-6545.0,-0.12,9.73,0.4,0.05,-0.12,-0.03
1.0,1.0,1615234.0,-4899.0,8741.0,-6677.0,-0.13,9.74,0.39,0.05,-0.12,-0.03
1.0,1.0,1628906.0,-4959.0,8803.0,-6637.0,-0.12,9.73,0.39,0.05,-0.12,-0.03
1.0,1.0,1642578.0,-4954.0,8876.0,-6541.0,-0.13,9.73,0.39,0.05,-0.12,-0.03
1.0,1.0,1656250.0,-4873.0,8834.0,-6524.0,-0.13,9.73,0.4,0.05,-0.12,-0.03
1.0,1.0,1669922.0,-4856.0,8769.0,-6629.0,-0.14,9.74,0.4,0.05,-0.12,-0.03
1.0,1.0,1683594.0,-4948.0,8833.0,-6660.0,-0.12,9.74,0.4,0.05,-0.12,-0.03
1.0,1.0,1697266.0,-4895.0,8782.0,-6673.0,-0.13,9.74,0.39,0.05,-0.12,-0.03
1.0,1.0,1710937.0,-4985.0,8848.0,-6589.0,-0.12,9.74,0.39,0.05,-0.12,-0.03
1.0,1.0,1724609.0,-4962.0,8847.0,-6532.0,-0.12,9.74,0.39,0.05,-0.12,-0.03
1.0,1.0,1738281.0,-4906.0,8798.0,-6508.0,-0.12,9.74,0.4,0.05,-0.12,-0.03
1.0,1.0,1751953.0,-4907.0,8759.0,-6642.0,-0.12,9.73,0.4,0.05,-0.12,-0.03
1.0,1.0,1765625.0,-4992.0,8790.0,-6621.0,-0.12,9.74,0.38,0.05,-0.12,-0.03
1.0,1.0,1779297.0,-5000.0,8851.0,-6795.0,-0.13,9.74,0.39,0.05,-0.12,-0.03
1.0,1.0,1792969.0,-5016.0,8834.0,-6603.0,-0.13,9.74,0.39,0.05,-0.12,-0.03
1.0,1.0,1806641.0,-4976.0,8878.0,-6464.0,-0.12,9.73,0.39,0.05,-0.12,-0.03
1.0,1.0,1820312.0,-4912.0,8748.0,-6506.0,-0.13,9.74,0.39,0.05,-0.12,-0.03
1.0,1.0,1833984.0,-4899.0,8757.0,-6652.0,-0.13,9.73,0.39,0.05,-0.12,-0.03
1.0,1.0,1847656.0,-4972.0,8800.0,-6662.0,-0.12,9.73,0.39,0.05,-0.12,-0.03
1.0,1.0,1861328.0,-4967.0,8813.0,-6506.0,-0.13,9.74,0.39,0.05,-0.12,-0.03
1.0,1.0,1875000.0,-4917.0,8827.0,-6560.0,-0.12,9.74,0.39,0.05,-0.12,-0.03
1.0,1.0,1888672.0,-4973.0,8840.0,-6497.0,-0.12,9.74,0.4,0.05,-0.12,-0.03
1.0,1.0,1902344.0,-4922.0,8765.0,-6560.0,-0.13,9.74,0.39,0.05,-0.12,-0.03
1.0,1.0,1916016.0,-4915.0,8751.0,-6659.0,-0.12,9.74,0.4,0.05,-0.12,-0.03
1.0,1.0,1929687.0,-5009.0,8817.0,-6624.0,-0.12,9.73,0.39,0.05,-0.12,-0.03
1.0,1.0,1943359.0,-4972.0,8871.0,-6489.0,-0.13,9.74,0.4,0.05,-0.12,-0.03
1.0,1.0,1957031.0,-4886.0,8803.0,-6484.0,-0.12,9.75,0.4,0.05,-0.12,-0.03
1.0,1.0,1970703.0,-4915.0,8820.0,-6471.0,-0.13,9.73,0.39,0.05,-0.12,-0.03
1.0,1.0,1984375.0,-4871.0,8745.0,-6513.0,-0.12,9.72,0.4,0.05,-0.12,-0.03
1.0,1.0,1998047.0,-4950.0,8767.0,-6665.0,-0.13,9.73,0.4,0.05,-0.12,-0.03
1.0,1.0,2011719.0,-5014.0,8824.0,-6568.0,-0.12,9.74,0.39,0.05,-0.12,-0.03
1.0,1.0,2025391.0,-4979.0,8856.0,-6511.0,-0.13,9.73,0.39,0.05,-0.12,-0.03
1.0,1.0,2039062.0,-4903.0,8789.0,-6586.0,-0.11,9.73,0.39,0.05,-0.12,-0.03
1.0,1.0,2052734.0,-4917.0,8741.0,-6704.0,-0.13,9.73,0.4,0.05,-0.12,-0.03
1.0,1.0,2066406.0,-4923.0,8752.0,-6583.0,-0.13,9.73,0.39,0.05,-0.12,-0.03
1.0,1.0,2080078.0,-4949.0,8754.0,-6666.0,-0.12,9.73,0.38,0.05,-0.12,-0.03
1.0,1.0,2093750.0,-4983.0,8836.0,-6606.0,-0.12,9.73,0.39,0.05,-0.12,-0.03
1.0,1.0,2107422.0,-4955.0,8834.0,-6484.0,-0.12,9.74,0.39,0.05,-0.12,-0.03
1.0,1.0,2121094.0,-4895.0,8752.0,-6550.0,-0.12,9.73,0.4,0.05,-0.12,-0.03
1.0,1.0,2134766.0,-4892.0,8763.0,-6643.0,-0.13,9.74,0.39,0.05,-0.12,-0.03
1.0,1.0,2148437.0,-4967.0,8818.0,-6574.0,-0.12,9.73,0.37,0.05,-0.12,-0.03
1.0,1.0,2162109.0,-4948.0,8774.0,-6651.0,-0.13,9.73,0.39,0.05,-0.12,-0.03
1.0,1.0,2175781.0,-4966.0,8847.0,-6521.0,-0.12,9.74,0.4,0.05,-0.12,-0.03
1.0,1.0,2189453.0,-4925.0,8852.0,-6502.0,-0.12,9.73,0.39,0.05,-0.12,-0.03
1.0,1.0,2203125.0,-4883.0,8753.0,-6564.0,-0.13,9.74,0.4,0.05,-0.12,-0.03
1.0,1.0,2216797.0,-4906.0,8770.0,-6675.0,-0.13,9.73,0.39,0.05,-0.12,-0.03
1.0,1.0,2230469.0,-4984.0,8839.0,-6596.0,-0.12,9.74,0.39,0.05,-0.12,-0.03
1.0,1.0,2244141.0,-4924.0,8804.0,-6608.0,-0.12,9.74,0.39,0.05,-0.12,-0.03
1.0,1.0,2257812.0,-4987.0,8889.0,-6514.0,-0.13,9.73,0.4,0.05,-0.12,-0.03
1.0,1.0,2271484.0,-4919.0,8819.0,-6527.0,-0.11,9.74,0.39,0.05,-0.12,-0.03
1.0,1.0,2285156.0,-4861.0,8783.0,-6557.0,-0.12,9.73,0.39,0.05,-0.12,-0.03
1.0,1.0,2298828.0,-4917.0,8810.0,-6657.0,-0.12,9.73,0.39,0.05,-0.12,-0.03
1.0,1.0,2313477.0,-4988.0,8837.0,-6555.0,-0.12,9.73,0.39,0.05,-0.12,-0.03
1.0,1.0,2327148.0,-4963.0,8831.0,-6592.0,-0.12,9.74,0.4,0.05,-0.12,-0.03
1.0,1.0,2341797.0,-4969.0,8861.0,-6510.0,-0.12,9.74,0.38,0.05,-0.12,-0.03
1.0,1.0,2355469.0,-4895.0,8817.0,-6485.0,-0.12,9.73,0.39,0.05,-0.12,-0.03
1.0,1.0,2369141.0,-4877.0,8796.0,-6599.0,-0.12,9.73,0.39,0.05,-0.12,-0.03
1.0,1.0,2382812.0,-4968.0,8818.0,-6607.0,-0.13,9.73,0.39,0.05,-0.12,-0.03
1.0,1.0,2396484.0,-4985.0,8869.0,-6530.0,-0.13,9.74,0.4,0.05,-0.12,-0.03
1.0,1.0,2410156.0,-5016.0,8818.0,-6612.0,-0.12,9.74,0.38,0.05,-0.12,-0.03
1.0,1.0,2423828.0,-5008.0,8851.0,-6491.0,-0.12,9.74,0.38,0.05,-0.12,-0.03
1.0,1.0,2437500.0,-4907.0,8853.0,-6487.0,-0.12,9.73,0.4,0.05,-0.12,-0.03
1.0,1.0,2451172.0,-4938.0,8772.0,-6588.0,-0.12,9.74,0.39,0.05,-0.12,-0.03
1.0,1.0,2464844.0,-4991.0,8821.0,-6625.0,-0.13,9.73,0.39,0.05,-0.12,-0.03
1.0,1.0,2478516.0,-5019.0,8873.0,-6536.0,-0.12,9.74,0.4,0.05,-0.12,-0.03
1.0,1.0,2492187.0,-4937.0,8795.0,-6570.0,-0.12,9.74,0.39,0.05,-0.12,-0.03
1.0,1.0,2505859.0,-4983.0,8845.0,-6526.0,-0.12,9.74,0.38,0.05,-0.12,-0.03
1.0,1.0,2519531.0,-4915.0,8789.0,-6534.0,-0.13,9.75,0.39,0.05,-0.12,-0.03
1.0,1.0,2533203.0,-4943.0,8779.0,-6637.0,-0.12,9.74,0.39,0.05,-0.12,-0.03
1.0,1.0,2546875.0,-4979.0,8850.0,-6597.0,-0.12,9.73,0.4,0.05,-0.12,-0.03
1.0,1.0,2560547.0,-4990.0,8889.0,-6477.0,-0.13,9.73,0.4,0.05,-0.12,-0.03
1.0,1.0,2574219.0,-4896.0,8814.0,-6515.0,-0.13,9.72,0.39,0.05,-0.12,-0.03
1.0,1.0,2587891.0,-4985.0,8858.0,-6517.0,-0.12,9.73,0.4,0.05,-0.12,-0.03
1.0,1.0,2601562.0,-4913.0,8801.0,-6598.0,-0.12,9.74,0.38,0.05,-0.12,-0.03
1.0,1.0,2615234.0,-4956.0,8791.0,-6629.0,-0.12,9.75,0.39,0.05,-0.12,-0.03
1.0,1.0,2628906.0,-5009.0,8857.0,-6653.0,-0.11,9.73,0.38,0.05,-0.12,-0.03
1.0,1.0,2642578.0,-5016.0,8888.0,-6493.0,-0.12,9.73,0.39,0.05,-0.12,-0.03
1.0,1.0,2656250.0,-4905.0,8800.0,-6511.0,-0.13,9.74,0.4,0.05,-0.12,-0.03
1.0,1.0,2670898.0,-4945.0,8768.0,-6615.0,-0.12,9.72,0.39,0.05,-0.12,-0.03
1.0,1.0,2684570.0,-4881.0,8770.0,-6526.0,-0.13,9.73,0.41,0.05,-0.12,-0.03
1.0,1.0,2698242.0,-4939.0,8781.0,-6638.0,-0.12,9.74,0.39,0.05,-0.12,-0.03
1.0,1.0,2711914.0,-4994.0,8817.0,-6562.0,-0.12,9.74,0.39,0.05,-0.12,-0.03
1.0,1.0,2725586.0,-4963.0,8852.0,-6472.0,-0.12,9.74,0.39,0.05,-0.12,-0.03
1.0,1.0,2739258.0,-4866.0,8793.0,-6506.0,-0.13,9.74,0.39,0.05,-0.12,-0.03
2.0,0.0,3907.0,-2229.0,1719.0,-4024.0,-0.09,-0.06,-9.44,0.05,-0.12,-0.03
2.0,0.0,17579.0,-2143.0,1753.0,-3922.0,-0.09,-0.06,-9.45,0.05,-0.12,-0.03
2.0,0.0,31250.0,-2191.0,1725.0,-4006.0,-0.09,-0.06,-9.46,0.05,-0.12,-0.03
2.0,0.0,44922.0,-2080.0,1752.0,-4031.0,-0.09,-0.08,-9.48,0.05,-0.12,-0.03
2.0,0.0,58594.0,-2051.0,1741.0,-3928.0,-0.08,-0.06,-9.47,0.05,-0.12,-0.03
2.0,0.0,72266.0,-2182.0,1735.0,-3974.0,-0.08,-0.06,-9.47,0.05,-0.12,-0.03
2.0,0.0,85938.0,-2240.0,1733.0,-4027.0,-0.1,-0.06,-9.47,0.05,-0.12,-0.03
2.0,0.0,99610.0,-2108.0,1749.0,-4032.0,-0.09,-0.06,-9.46,0.05,-0.12,-0.03
2.0,0.0,113282.0,-2288.0,1754.0,-3995.0,-0.08,-0.06,-9.44,0.05,-0.12,-0.03
2.0,0.0,126954.0,-2068.0,1763.0,-3979.0,-0.09,-0.07,-9.44,0.05,-0.12,-0.03
2.0,0.0,140625.0,-2077.0,1774.0,-3926.0,-0.1,-0.06,-9.46,0.05,-0.12,-0.03
2.0,0.0,154297.0,-2183.0,1771.0,-3964.0,-0.1,-0.05,-9.48,0.05,-0.12,-0.03
2.0,0.0,167969.0,-2209.0,1750.0,-3990.0,-0.09,-0.07,-9.45,0.05,-0.12,-0.03
2.0,0.0,181641.0,-2108.0,1742.0,-4059.0,-0.09,-0.07,-9.45,0.05,-0.12,-0.03
2.0,0.0,195313.0,-2072.0,1772.0,-3923.0,-0.09,-0.07,-9.47,0.05,-0.12,-0.03
2.0,0.0,208985.0,-2076.0,1786.0,-3988.0,-0.1,-0.07,-9.49,0.05,-0.12,-0.03
2.0,0.0,222657.0,-2106.0,1762.0,-3943.0,-0.08,-0.06,-9.48,0.05,-0.12,-0.03
2.0,0.0,236329.0,-2184.0,1793.0,-3982.0,-0.08,-0.06,-9.44,0.05,-0.12,-0.03
2.0,0.0,250000.0,-2212.0,1767.0,-4045.0,-0.1,-0.06,-9.45,0.05,-0.12,-0.03
2.0,0.0,263672.0,-2067.0,1790.0,-4004.0,-0.09,-0.07,-9.47,0.05,-0.12,-0.03
2.0,0.0,277344.0,-2065.0,1791.0,-3974.0,-0.1,-0.06,-9.47,0.05,-0.12,-0.03
2.0,0.0,291016.0,-2199.0,1792.0,-3929.0,-0.09,-0.06,-9.45,0.06,-0.12,-0.03
2.0,0.0,304688.0,-2106.0,1788.0,-3903.0,-0.08,-0.07,-9.46,0.05,-0.12,-0.03
2.0,0.0,318360.0,-2227.0,1758.0,-3976.0,-0.08,-0.06,-9.47,0.06,-0.12,-0.03
2.0,0.0,333008.0,-2172.0,1758.0,-3973.0,-0.09,-0.06,-9.47,0.05,-0.12,-0.03
2.0,0.0,346680.0,-2070.0,1773.0,-4000.0,-0.09,-0.07,-9.46,0.05,-0.12,-0.03
2.0,0.0,360352.0,-2081.0,1802.0,-3909.0,-0.1,-0.06,-9.46,0.05,-0.12,-0.03
2.0,0.0,374024.0,-2193.0,1815.0,-3947.0,-0.09,-0.06,-9.46,0.05,-0.12,-0.03
2.0,0.0,387696.0,-2150.0,1762.0,-3867.0,-0.09,-0.06,-9.45,0.05,-0.12,-0.03
2.0,0.0,401368.0,-2234.0,1745.0,-3937.0,-0.1,-0.06,-9.45,0.05,-0.12,-0.03
2.0,0.0,415039.0,-2181.0,1730.0,-4014.0,-0.09,-0.07,-9.47,0.05,-0.12,-0.03
2.0,0.0,428711.0,-2075.0,1769.0,-3950.0,-0.09,-0.07,-9.47,0.05,-0.12,-0.03
2.0,0.0,442383.0,-2102.0,1763.0,-3889.0,-0.08,-0.06,-9.47,0.05,-0.12,-0.03
2.0,0.0,456055.0,-2235.0,1729.0,-3960.0,-0.08,-0.06,-9.48,0.05,-0.12,-0.03
2.0,0.0,469727.0,-2155.0,1752.0,-3916.0,-0.09,-0.07,-9.48,0.05,-0.12,-0.03
2.0,0.0,483399.0,-2256.0,1737.0,-3941.0,-0.09,-0.06,-9.45,0.05,-0.12,-0.03
2.0,0.0,497071.0,-2185.0,1738.0,-3980.0,-0.09,-0.08,-9.45,0.05,-0.12,-0.03
2.0,0.0,510743.0,-2108.0,1789.0,-3943.0,-0.1,-0.06,-9.45,0.05,-0.12,-0.03
2.0,0.0,524414.0,-2140.0,1753.0,-3917.0,-0.09,-0.07,-9.46,0.05,-0.12,-0.03
2.0,0.0,538086.0,-2246.0,1714.0,-3965.0,-0.09,-0.06,-9.45,0.05,-0.12,-0.03
2.0,0.0,551758.0,-2179.0,1739.0,-4021.0,-0.09,-0.06,-9.46,0.05,-0.12,-0.03
2.0,0.0,565430.0,-2239.0,1720.0,-4011.0,-0.08,-0.06,-9.48,0.05,-0.12,-0.03
2.0,0.0,579102.0,-2113.0,1742.0,-3985.0,-0.08,-0.07,-9.48,0.06,-0.12,-0.03
2.0,0.0,592774.0,-2066.0,1746.0,-3907.0,-0.08,-0.07,-9.46,0.06,-0.12,-0.03
2.0,0.0,606446.0,-2133.0,1747.0,-3881.0,-0.09,-0.07,-9.45,0.06,-0.12,-0.03
2.0,0.0,620118.0,-2230.0,1734.0,-3978.0,-0.1,-0.06,-9.46,0.05,-0.12,-0.03
2.0,0.0,633789.0,-2146.0,1750.0,-4007.0,-0.09,-0.06,-9.46,0.06,-0.12,-0.03
2.0,0.0,647461.0,-2076.0,1761.0,-4014.0,-0.09,-0.07,-9.46,0.06,-0.12,-0.03
2.0,0.0,661133.0,-2079.0,1780.0,-3959.0,-0.09,-0.07,-9.46,0.06,-0.12,-0.03
2.0,0.0,674805.0,-2066.0,1753.0,-3929.0,-0.08,-0.06,-9.46,0.06,-0.12,-0.03
2.0,0.0,688477.0,-2177.0,1760.0,-3932.0,-0.09,-0.06,-9.47,0.05,-0.12,-0.03
2.0,0.0,702149.0,-2236.0,1752.0,-4003.0,-0.09,-0.06,-9.46,0.05,-0.12,-0.03
2.0,0.0,715821.0,-2111.0,1772.0,-4025.0,-0.09,-0.07,-9.45,0.05,-0.12,-0.03
2.0,0.0,729493.0,-2021.0,1798.0,-3968.0,-0.1,-0.07,-9.47,0.06,-0.12,-0.03
2.0,0.0,743164.0,-2126.0,1732.0,-3943.0,-0.09,-0.06,-9.47,0.06,-0.12,-0.03
2.0,0.0,756836.0,-2049.0,1799.0,-3966.0,-0.09,-0.08,-9.47,0.05,-0.12,-0.03
2.0,0.0,770508.0,-2191.0,1746.0,-3932.0,-0.09,-0.07,-9.46,0.06,-0.12,-0.03
2.0,0.0,784180.0,-2259.0,1750.0,-3999.0,-0.09,-0.06,-9.47,0.06,-0.12,-0.03
2.0,0.0,797852.0,-2186.0,1725.0,-4023.0,-0.1,-0.06,-9.48,0.06,-0.12,-0.03
2.0,0.0,811524.0,-2081.0,1749.0,-3948.0,-0.09,-0.07,-9.47,0.06,-0.12,-0.03
2.0,0.0,825196.0,-2181.0,1784.0,-3898.0,-0.1,-0.07,-9.46,0.06,-0.12,-0.03
2.0,0.0,838868.0,-2122.0,1776.0,-3929.0,-0.1,-0.07,-9.44,0.06,-0.12,-0.03
2.0,0.0,852539.0,-2193.0,1753.0,-3917.0,-0.08,-0.07,-9.46,0.06,-0.12,-0.03
2.0,0.0,866211.0,-2223.0,1754.0,-4068.0,-0.11,-0.06,-9.46,0.05,-0.12,-0.03
2.0,0.0,879883.0,-2127.0,1743.0,-4035.0,-0.1,-0.08,-9.46,0.06,-0.12,-0.03
2.0,0.0,893555.0,-2093.0,1766.0,-3933.0,-0.09,-0.08,-9.46,0.06,-0.12,-0.03
2.0,0.0,907227.0,-2200.0,1773.0,-3925.0,-0.09,-0.07,-9.47,0.06,-0.12,-0.03
2.0,0.0,920899.0,-2238.0,1741.0,-3967.0,-0.09,-0.07,-9.47,0.06,-0.12,-0.03
2.0,0.0,934571.0,-2214.0,1755.0,-3910.0,-0.09,-0.07,-9.45,0.06,-0.12,-0.03
2.0,0.0,948243.0,-2196.0,1742.0,-4009.0,-0.1,-0.07,-9.44,0.06,-0.12,-0.03
2.0,0.0,962891.0,-2056.0,1766.0,-3967.0,-0.09,-0.07,-9.46,0.06,-0.12,-0.03
2.0,0.0,976563.0,-2080.0,1777.0,-3972.0,-0.1,-0.08,-9.48,0.06,-0.12,-0.03
2.0,0.0,990235.0,-2209.0,1768.0,-3902.0,-0.09,-0.07,-9.46,0.06,-0.12,-0.03
2.0,0.0,1003907.0,-2235.0,1764.0,-3928.0,-0.12,-0.07,-9.47,0.06,-0.12,-0.03
2.0,0.0,1017579.0,-2233.0,1747.0,-3938.0,-3.74,0.1,-9.47,0.06,-0.12,-0.02
2.0,0.0,1031250.0,-2194.0,1761.0,-3952.0,-3.85,0.0,-9.46,0.06,-0.12,-0.03
2.0,0.0,1044922.0,-2056.0,1784.0,-3896.0,9.82,4.48,-9.35,0.1,-0.12,0.43
2.0,0.0,1058594.0,-2109.0,1785.0,-3898.0,8.74,2.73,-9.37,0.06,-0.12,0.88
2.0,0.0,1072266.0,-2260.0,1759.0,-4031.0,7.41,-2.31,-9.45,0.05,-0.12,0.08
2.0,0.0,1085938.0,-2224.0,1682.0,-4373.0,3.5,-2.71,-9.45,0.05,-0.12,-0.33
2.0,0.0,1099610.0,-2226.0,1636.0,-4814.0,-3.15,-2.22,-9.46,0.05,-0.12,-0.4
2.0,0.0,1113282.0,-2164.0,1620.0,-5208.0,-7.9,-1.32,-9.49,0.06,-0.12,-0.18
2.0,0.0,1126954.0,-2003.0,1595.0,-5413.0,-13.84,1.17,-9.57,0.06,-0.12,-0.27
2.0,0.0,1140625.0,-2044.0,1608.0,-5266.0,-24.49,4.33,-9.6,0.06,-0.12,0.46
2.0,0.0,1154297.0,-2222.0,1612.0,-4835.0,-26.44,6.24,-9.59,0.05,-0.12,1.03
2.0,0.0,1167969.0,-2198.0,1677.0,-4159.0,-17.99,3.06,-8.73,0.04,-0.11,2.78
2.0,0.0,1181641.0,-2084.0,1800.0,-3331.0,-8.13,-0.44,-9.75,0.05,-0.17,3.1
2.0,0.0,1195313.0,-2096.0,1794.0,-2495.0,5.58,-5.51,-9.47,0.05,-0.09,3.02
2.0,0.0,1208985.0,-1917.0,1733.0,-2027.0,11.14,-6.08,-9.48,0.05,-0.09,2.81
2.0,0.0,1222657.0,-1998.0,1621.0,-1819.0,17.54,-8.52,-9.36,0.06,-0.1,2.68
2.0,0.0,1236329.0,-2120.0,1514.0,-1703.0,27.04,-11.11,-9.31,0.06,-0.12,1.74
2.0,0.0,1250000.0,-2088.0,1446.0,-1756.0,25.84,-10.49,-9.34,0.06,-0.12,1.02
2.0,0.0,1263672.0,-1989.0,1442.0,-1808.0,27.97,-11.67,-9.21,0.06,-0.13,-0.87
2.0,0.0,1277344.0,-2060.0,1511.0,-2251.0,21.94,-8.77,-9.27,0.07,-0.14,-2.22
2.0,0.0,1291016.0,-2037.0,1579.0,-2781.0,5.07,-1.51,-9.33,0.07,-0.13,-3.92
2.0,0.0,1304688.0,-2162.0,1563.0,-3516.0,-4.86,1.9,-9.28,0.07,-0.14,-3.99
2.0,0.0,1318360.0,-2232.0,1510.0,-4675.0,-10.12,5.29,-9.57,0.09,-0.23,-3.7
2.0,0.0,1332032.0,-2083.0,1495.0,-5912.0,-18.5,7.2,-9.65,0.07,-0.13,-2.67
2.0,0.0,1345704.0,-1930.0,1526.0,-6966.0,-19.33,7.67,-9.68,0.06,-0.13,-2.04
2.0,0.0,1359375.0,-1920.0,1527.0,-7466.0,-22.01,6.49,-9.68,0.06,-0.12,-0.9
2.0,0.0,1373047.0,-2013.0,1564.0,-7186.0,-19.37,7.3,-9.59,0.05,-0.12,-0.37
2.0,0.0,1386719.0,-2026.0,1542.0,-6146.0,-22.18,5.37,-9.57,0.03,-0.12,1.09
2.0,0.0,1400391.0,-2157.0,1565.0,-5032.0,-17.98,2.83,-9.58,0.03,-0.12,2.06
2.0,0.0,1414063.0,-2118.0,1650.0,-4041.0,-7.62,-1.47,-9.44,0.03,-0.11,3.0
2.0,0.0,1427735.0,-2079.0,1723.0,-3131.0,-0.03,-4.77,-9.42,0.03,-0.1,3.24
2.0,0.0,1441407.0,-2139.0,1747.0,-2499.0,4.98,-6.73,-9.25,0.03,-0.1,3.11
2.0,0.0,1455079.0,-2182.0,1723.0,-2256.0,20.6,-11.1,-9.41,0.05,-0.1,2.29
2.0,0.0,1468750.0,-2122.0,1654.0,-1988.0,26.57,-12.48,-9.39,0.05,-0.11,1.6
2.0,0.0,1482422.0,-2156.0,1643.0,-2132.0,27.46,-12.56,-9.27,0.05,-0.13,-0.16
2.0,0.0,1496094.0,-2024.0,1641.0,-2350.0,29.42,-11.46,-9.26,0.06,-0.14,-1.17
2.0,0.0,1509766.0,-2041.0,1692.0,-2709.0,12.27,-4.85,-9.66,0.07,-0.14,-3.64
2.0,0.0,1523438.0,-2168.0,1676.0,-3397.0,-1.31,0.17,-8.93,0.07,-0.14,-4.16
2.0,0.0,1537110.0,-2211.0,1609.0,-4415.0,-9.1,1.78,-9.53,0.08,-0.12,-3.85
2.0,0.0,1550782.0,-2050.0,1573.0,-5432.0,-28.84,8.04,-9.65,0.07,-0.12,-2.93
2.0,0.0,1564454.0,-2071.0,1553.0,-6180.0,-34.31,10.12,-9.74,0.06,-0.12,-2.0
2.0,0.0,1578125.0,-1944.0,1600.0,-5807.0,-32.61,10.4,-9.82,0.05,-0.11,0.14
2.0,0.0,1592774.0,-1991.0,1635.0,-4858.0,-26.11,7.99,-9.72,0.04,-0.12,1.33
2.0,0.0,1606446.0,-2177.0,1638.0,-3836.0,-9.14,0.75,-9.54,0.03,-0.11,3.19
2.0,0.0,1620118.0,-2234.0,1755.0,-3135.0,-1.04,-2.97,-9.58,0.03,-0.11,3.46
2.0,0.0,1633789.0,-2077.0,1771.0,-2357.0,13.29,-8.33,-9.35,0.04,-0.1,3.33
2.0,0.0,1647461.0,-2093.0,1729.0,-2116.0,20.23,-10.46,-9.28,0.05,-0.1,2.9
2.0,0.0,1661133.0,-1967.0,1663.0,-2000.0,25.65,-10.12,-9.31,0.05,-0.1,2.05
2.0,0.0,1674805.0,-1965.0,1642.0,-1938.0,22.66,-11.29,-9.35,0.05,-0.13,0.37
2.0,0.0,1688477.0,-2114.0,1633.0,-2078.0,29.64,-11.5,-9.31,0.06,-0.13,-0.38
2.0,0.0,1702149.0,-2176.0,1689.0,-2502.0,18.29,-8.39,-9.41,0.07,-0.14,-2.81
2.0,0.0,1715821.0,-2096.0,1711.0,-3146.0,6.88,-3.67,-9.35,0.08,-0.14,-3.63
2.0,0.0,1729493.0,-2184.0,1600.0,-4609.0,-11.95,3.62,-9.4,0.08,-0.14,-3.53
2.0,0.0,1743164.0,-1974.0,1561.0,-5748.0,-22.28,6.71,-9.52,0.07,-0.12,-3.19
2.0,0.0,1756836.0,-1960.0,1555.0,-6533.0,-35.13,9.84,-9.71,0.06,-0.11,-1.25
2.0,0.0,1770508.0,-2049.0,1515.0,-6716.0,-23.3,7.89,-9.72,0.06,-0.11,-0.14
2.0,0.0,1784180.0,-2037.0,1520.0,-6066.0,-33.35,9.48,-9.88,0.05,-0.11,0.77
2.0,0.0,1797852.0,-2014.0,1565.0,-4926.0,-19.67,4.34,-9.67,0.03,-0.11,2.84
2.0,0.0,1811524.0,-2077.0,1622.0,-3835.0,-12.62,1.27,-9.55,0.03,-0.11,3.41
2.0,0.0,1825196.0,-2045.0,1727.0,-2690.0,-2.39,-3.74,-9.04,0.04,-0.11,4.02
2.0,0.0,1838868.0,-2054.0,1725.0,-2148.0,8.35,-8.3,-9.36,0.04,-0.09,3.95
2.0,0.0,1852539.0,-2100.0,1598.0,-1885.0,25.82,-14.19,-9.23,0.05,-0.1,3.15
2.0,0.0,1866211.0,-2037.0,1542.0,-1809.0,28.93,-13.27,-9.24,0.05,-0.1,2.06
2.0,0.0,1879883.0,-1923.0,1471.0,-1764.0,28.35,-11.62,-9.4,0.06,-0.11,1.17
2.0,0.0,1893555.0,-1972.0,1504.0,-1882.0,32.99,-12.91,-9.4,0.05,-0.13,-0.98
2.0,0.0,1907227.0,-2137.0,1595.0,-2411.0,25.76,-11.75,-9.47,0.05,-0.14,-2.64
2.0,0.0,1920899.0,-2157.0,1657.0,-3044.0,4.06,-3.86,-9.17,0.08,-0.16,-4.51
2.0,0.0,1934571.0,-2273.0,1606.0,-4130.0,-6.27,0.84,-9.31,0.07,-0.14,-4.62
2.0,0.0,1948243.0,-2113.0,1525.0,-5397.0,-23.93,6.84,-9.53,0.07,-0.12,-3.51
2.0,0.0,1961914.0,-1925.0,1450.0,-6552.0,-30.89,8.96,-9.56,0.06,-0.11,-2.89
2.0,0.0,1975586.0,-1941.0,1446.0,-7011.0,-26.27,7.2,-9.67,0.06,-0.12,-1.95
2.0,0.0,1989258.0,-2041.0,1457.0,-6770.0,-30.54,9.4,-9.82,0.05,-0.11,-0.05
2.0,0.0,2002930.0,-2047.0,1523.0,-5237.0,-26.39,6.12,-9.67,0.04,-0.11,1.1
2.0,0.0,2016602.0,-2235.0,1606.0,-4201.0,-12.82,0.39,-9.57,0.03,-0.11,2.51
2.0,0.0,2030274.0,-2180.0,1746.0,-3344.0,-7.47,-2.49,-9.29,0.03,-0.11,2.78
2.0,0.0,2043946.0,-2071.0,1835.0,-2693.0,2.63,-5.71,-9.5,0.04,-0.11,2.93
2.0,0.0,2057618.0,-2061.0,1796.0,-2223.0,13.81,-8.61,-9.29,0.05,-0.1,2.86
2.0,0.0,2071289.0,-2108.0,1708.0,-1944.0,28.41,-10.56,-9.28,0.05,-0.11,1.73
2.0,0.0,2084961.0,-2004.0,1681.0,-1962.0,30.84,-8.79,-9.38,0.06,-0.12,0.75
2.0,0.0,2098633.0,-2129.0,1701.0,-2034.0,27.42,-10.75,-9.34,0.05,-0.13,-0.05
2.0,0.0,2112305.0,-1985.0,1747.0,-2327.0,25.76,-9.2,-9.33,0.06,-0.14,-2.25
2.0,0.0,2125977.0,-2018.0,1798.0,-2807.0,14.7,-6.46,-9.32,0.06,-0.14,-3.42
2.0,0.0,2139649.0,-2185.0,1744.0,-3526.0,-6.79,0.89,-9.43,0.07,-0.14,-3.67
2.0,0.0,2153321.0,-2228.0,1649.0,-4548.0,-14.81,1.67,-9.57,0.07,-0.13,-3.28
2.0,0.0,2166993.0,-2104.0,1588.0,-5526.0,-29.85,8.26,-9.69,0.06,-0.12,-2.11
2.0,0.0,2180664.0,-1936.0,1563.0,-6116.0,-30.15,7.15,-9.74,0.06,-0.12,-1.0
2.0,0.0,2194336.0,-1951.0,1581.0,-5955.0,-19.6,3.77,-9.72,0.06,-0.12,-0.19
2.0,0.0,2208008.0,-1981.0,1593.0,-5177.0,-21.98,2.92,-9.63,0.04,-0.12,1.26
2.0,0.0,2221680.0,-2175.0,1647.0,-4324.0,-18.98,1.55,-9.59,0.04,-0.12,2.0
2.0,0.0,2235352.0,-2264.0,1743.0,-3581.0,-9.85,-3.0,-9.53,0.04,-0.12,2.5
2.0,0.0,2249024.0,-2114.0,1779.0,-2903.0,-5.15,-3.3,-9.39,0.04,-0.1,2.57
2.0,0.0,2262696.0,-1981.0,1742.0,-2303.0,12.21,-6.22,-9.43,0.06,-0.1,2.83
2.0,0.0,2276368.0,-2072.0,1658.0,-1960.0,17.9,-5.53,-9.41,0.06,-0.11,2.39
2.0,0.0,2290039.0,-1965.0,1497.0,-1715.0,29.25,-6.74,-9.29,0.06,-0.11,1.42
2.0,0.0,2303711.0,-2119.0,1459.0,-1731.0,28.36,-5.22,-9.27,0.05,-0.12,0.59
2.0,0.0,2317383.0,-2131.0,1485.0,-1927.0,35.97,-8.74,-9.03,0.05,-0.14,-0.21
2.0,0.0,2331055.0,-2022.0,1601.0,-2240.0,25.65,-7.64,-9.17,0.05,-0.14,-3.12
2.0,0.0,2344727.0,-2044.0,1703.0,-2647.0,15.16,-3.37,-9.3,0.05,-0.13,-4.31
2.0,0.0,2358399.0,-2191.0,1746.0,-3426.0,-4.59,1.89,-9.5,0.06,-0.14,-4.33
2.0,0.0,2372071.0,-2057.0,1660.0,-5129.0,-14.15,1.86,-9.62,0.06,-0.12,-3.77
2.0,0.0,2385743.0,-2104.0,1594.0,-6278.0,-29.55,4.47,-9.79,0.06,-0.13,-2.34
2.0,0.0,2399414.0,-2007.0,1539.0,-6935.0,-34.02,4.16,-9.74,0.06,-0.13,-1.27
2.0,0.0,2413086.0,-1879.0,1513.0,-6804.0,-33.22,2.93,-9.6,0.05,-0.12,-0.32
2.0,0.0,2426758.0,-1921.0,1569.0,-5906.0,-30.75,-0.22,-9.58,0.04,-0.12,0.95
2.0,0.0,2440430.0,-2196.0,1669.0,-4880.0,-22.88,-3.32,-9.55,0.03,-0.12,1.61
2.0,0.0,2454102.0,-2316.0,1824.0,-3992.0,-9.41,-6.23,-9.59,0.04,-0.11,2.09
2.0,0.0,2467774.0,-2253.0,2024.0,-2806.0,-1.69,-7.72,-9.6,0.04,-0.1,2.16
2.0,0.0,2481446.0,-2141.0,1940.0,-2379.0,7.38,-5.28,-9.46,0.06,-0.11,1.96
2.0,0.0,2495118.0,-1976.0,1846.0,-2044.0,13.18,-3.92,-9.42,0.06,-0.1,1.88
2.0,0.0,2508789.0,-1974.0,1664.0,-1792.0,22.76,-1.24,-9.33,0.07,-0.11,1.53
2.0,0.0,2523438.0,-2085.0,1580.0,-1712.0,29.96,0.18,-9.2,0.07,-0.14,0.49
2.0,0.0,2537110.0,-2068.0,1512.0,-1783.0,26.53,-0.19,-9.64,0.07,-0.15,0.08
2.0,0.0,2551758.0,-2082.0,1604.0,-1988.0,30.83,-3.28,-7.65,0.03,-0.24,-1.89
2.0,0.0,2565430.0,-2056.0,1709.0,-2358.0,20.4,-0.09,-10.07,0.08,0.06,-2.64
2.0,0.0,2579102.0,-1998.0,1801.0,-2868.0,8.62,0.74,-9.39,0.06,-0.14,-3.33
2.0,0.0,2592774.0,-2133.0,1862.0,-3601.0,0.49,2.54,-9.43,0.05,-0.14,-3.36
2.0,0.0,2606446.0,-2250.0,1795.0,-4580.0,-11.3,2.16,-9.39,0.05,-0.13,-2.78
2.0,0.0,2620118.0,-2129.0,1694.0,-6234.0,-15.51,-1.18,-9.48,0.05,-0.12,-2.45
2.0,0.0,2633789.0,-1957.0,1566.0,-7221.0,-29.95,-3.0,-9.81,0.05,-0.12,-1.63
2.0,0.0,2647461.0,-1800.0,1538.0,-7675.0,-34.86,-4.24,-9.83,0.05,-0.12,-0.7
2.0,0.0,2661133.0,-1762.0,1584.0,-7222.0,-30.52,0.51,-9.89,0.06,-0.12,0.03
2.0,0.0,2674805.0,-1946.0,1615.0,-6055.0,-32.97,-1.53,-9.51,0.04,-0.12,2.16
2.0,0.0,2688477.0,-2220.0,1758.0,-4764.0,-24.78,-6.02,-9.78,0.03,-0.12,3.05
2.0,0.0,2702149.0,-2275.0,1945.0,-3693.0,-8.8,-8.83,-9.62,0.04,-0.11,3.77
2.0,0.0,2715821.0,-2209.0,2013.0,-2487.0,1.79,-9.16,-9.41,0.05,-0.11,3.84
2.0,0.0,2729493.0,-1979.0,1844.0,-2113.0,15.48,-4.61,-9.36,0.08,-0.1,3.25
3.0,0.0,10742.0,-1227.0,2826.0,-4912.0,0.52,0.41,9.9,0.05,-0.08,-0.07
3.0,0.0,24414.0,-1146.0,2828.0,-4879.0,0.64,0.5,10.03,0.06,-0.13,-0.03
3.0,0.0,38086.0,-1051.0,2799.0,-4923.0,0.58,0.45,9.98,0.05,-0.13,-0.01
3.0,0.0,51758.0,-1130.0,2807.0,-4984.0,0.46,0.4,9.88,0.06,-0.11,0.0
3.0,0.0,65430.0,-1243.0,2857.0,-4944.0,0.37,0.35,10.0,0.08,-0.09,-0.0
3.0,0.0,79101.0,-1160.0,2839.0,-4963.0,0.18,0.41,10.22,0.09,-0.1,-0.02
3.0,0.0,92773.0,-1236.0,2868.0,-4950.0,0.22,0.45,10.31,0.1,-0.1,-0.03
3.0,0.0,106445.0,-1138.0,2839.0,-4861.0,0.27,0.45,10.43,0.09,-0.11,-0.03
3.0,0.0,121094.0,-1048.0,2786.0,-4938.0,0.37,0.45,10.32,0.05,-0.12,-0.04
3.0,0.0,134765.0,-1160.0,2781.0,-5014.0,0.44,0.45,10.26,0.04,-0.11,-0.04
3.0,0.0,148437.0,-1240.0,2836.0,-4934.0,0.41,0.42,10.23,0.05,-0.12,-0.02
3.0,0.0,162109.0,-1203.0,2830.0,-4960.0,0.39,0.43,10.28,0.05,-0.14,-0.01
3.0,0.0,175781.0,-1218.0,2864.0,-4919.0,0.36,0.46,10.21,0.04,-0.14,-0.01
3.0,0.0,189453.0,-1078.0,2807.0,-4882.0,0.42,0.46,10.2,0.04,-0.14,-0.01
3.0,0.0,203125.0,-1031.0,2775.0,-4907.0,0.47,0.44,9.99,0.03,-0.12,-0.01
3.0,0.0,216797.0,-1153.0,2806.0,-4969.0,0.47,0.45,9.98,0.04,-0.12,-0.01
3.0,0.0,230469.0,-1226.0,2867.0,-4884.0,0.43,0.39,10.12,0.05,-0.12,-0.01
3.0,0.0,244140.0,-1145.0,2831.0,-4869.0,0.44,0.42,10.01,0.04,-0.14,-0.02
3.0,0.0,257812.0,-1216.0,2845.0,-4862.0,0.38,0.36,9.94,0.04,-0.1,-0.03
3.0,0.0,271484.0,-1119.0,2802.0,-4891.0,0.47,0.39,10.13,0.06,-0.11,-0.03
3.0,0.0,285156.0,-1068.0,2790.0,-4973.0,0.47,0.44,10.09,0.06,-0.14,-0.02
3.0,0.0,298828.0,-1177.0,2805.0,-5030.0,0.37,0.43,10.08,0.06,-0.12,-0.01
3.0,0.0,312500.0,-1257.0,2832.0,-4924.0,0.37,0.39,10.09,0.06,-0.11,-0.02
3.0,0.0,326172.0,-1124.0,2846.0,-4894.0,0.34,0.41,10.12,0.06,-0.11,-0.02
3.0,0.0,339844.0,-1053.0,3059.0,-4900.0,0.27,0.41,10.13,0.07,-0.12,-0.02
3.0,0.0,353515.0,-1061.0,2825.0,-4863.0,0.26,0.43,10.19,0.07,-0.13,-0.03
3.0,0.0,367187.0,-1068.0,2797.0,-4967.0,0.41,0.49,10.23,0.06,-0.12,-0.03
3.0,0.0,380859.0,-1192.0,2830.0,-4949.0,0.48,0.51,10.26,0.05,-0.13,-0.03
3.0,0.0,394531.0,-1222.0,2862.0,-4876.0,0.41,0.47,10.06,0.03,-0.12,-0.01
3.0,0.0,408203.0,-1125.0,2826.0,-4919.0,0.39,0.45,10.05,0.05,-0.11,-0.01
3.0,0.0,421875.0,-1058.0,2801.0,-4994.0,0.35,0.44,10.2,0.06,-0.13,-0.02
3.0,0.0,435547.0,-1159.0,2811.0,-4947.0,0.34,0.45,10.19,0.06,-0.13,-0.02
3.0,0.0,449219.0,-1089.0,2801.0,-4964.0,0.35,0.44,10.19,0.05,-0.12,-0.02
3.0,0.0,462890.0,-1235.0,2821.0,-4989.0,0.55,0.42,10.18,0.04,-0.11,-0.03
3.0,0.0,476562.0,-1215.0,2842.0,-4921.0,0.57,0.41,10.07,0.03,-0.1,-0.02
3.0,0.0,490234.0,-1078.0,2854.0,-4923.0,0.44,0.37,10.01,0.05,-0.12,-0.0
3.0,0.0,503906.0,-1078.0,2784.0,-5009.0,0.32,0.39,10.12,0.06,-0.13,0.0
3.0,0.0,517578.0,-1167.0,2832.0,-4990.0,0.28,0.38,10.24,0.06,-0.13,-0.02
3.0,0.0,531250.0,-1088.0,2802.0,-5029.0,0.34,0.39,10.15,0.05,-0.12,-0.04
3.0,0.0,544922.0,-1226.0,2816.0,-4952.0,0.39,0.39,10.13,0.05,-0.11,-0.04
3.0,0.0,558594.0,-1169.0,2826.0,-4904.0,0.38,0.4,10.13,0.06,-0.12,-0.03
3.0,0.0,573242.0,-1035.0,2832.0,-4899.0,0.41,0.42,10.09,0.06,-0.12,-0.03
3.0,0.0,586914.0,-1089.0,2773.0,-5002.0,0.42,0.43,10.12,0.06,-0.11,-0.03
3.0,0.0,600586.0,-1192.0,2837.0,-4984.0,0.43,0.44,10.09,0.05,-0.1,-0.04
3.0,0.0,614258.0,-1094.0,2777.0,-5029.0,0.57,0.47,10.14,0.03,-0.09,-0.04
3.0,0.0,627930.0,-1216.0,2811.0,-4951.0,0.56,0.49,10.02,0.01,-0.1,-0.03
3.0,0.0,641601.0,-1142.0,2831.0,-4902.0,0.21,0.45,10.15,0.03,-0.09,-0.01
3.0,0.0,655273.0,-1057.0,2769.0,-4905.0,0.19,0.47,10.15,0.03,-0.05,-0.03
3.0,0.0,668945.0,-1076.0,2758.0,-4984.0,0.22,0.45,10.19,0.0,0.09,-0.08
3.0,0.0,682617.0,-1182.0,2836.0,-4975.0,0.39,0.37,10.24,-0.06,0.1,-0.09
3.0,0.0,696289.0,-1163.0,2604.0,-4923.0,0.46,0.38,10.19,-0.05,-0.01,-0.08
3.0,0.0,709961.0,-1205.0,2848.0,-4881.0,0.11,0.4,10.03,-0.13,-0.0,-0.07
3.0,0.0,723633.0,-1114.0,2843.0,-4862.0,0.33,0.32,9.96,-0.05,-0.01,-0.07
3.0,0.0,737305.0,-1003.0,2783.0,-4849.0,0.4,0.34,10.08,0.03,-0.1,-0.04
3.0,0.0,750976.0,-1078.0,2793.0,-4954.0,0.35,0.32,10.12,0.07,-0.12,-0.03
3.0,0.0,764648.0,-1184.0,2870.0,-4912.0,0.26,0.32,10.08,0.08,-0.11,-0.01
3.0,0.0,778320.0,-1150.0,2825.0,-4851.0,0.23,0.31,10.17,0.1,-0.1,-0.02
3.0,0.0,791992.0,-1270.0,2882.0,-4850.0,0.25,0.33,10.34,0.08,-0.06,-0.03
3.0,0.0,805664.0,-1099.0,2835.0,-4853.0,0.15,0.34,10.37,0.05,-0.04,-0.05
3.0,0.0,819336.0,-988.0,2826.0,-4866.0,0.09,0.31,10.4,0.04,-0.04,-0.05
3.0,0.0,833008.0,-1091.0,2815.0,-4933.0,0.14,0.38,10.29,0.04,-0.06,-0.06
3.0,0.0,846680.0,-1221.0,2850.0,-4838.0,0.15,0.39,10.25,0.05,-0.06,-0.06
3.0,0.0,860351.0,-1126.0,2865.0,-4857.0,0.33,0.36,10.23,0.04,-0.07,-0.07
3.0,0.0,874023.0,-1011.0,2823.0,-4897.0,0.44,0.39,10.08,0.03,-0.08,-0.06
3.0,0.0,887695.0,-1058.0,2852.0,-4906.0,0.35,0.28,9.93,0.03,-0.06,-0.05
3.0,0.0,902344.0,-1010.0,2849.0,-4923.0,0.27,0.29,9.84,0.05,-0.08,-0.03
3.0,0.0,916015.0,-1152.0,2845.0,-4950.0,0.25,0.34,10.17,0.08,-0.09,-0.02
3.0,0.0,929687.0,-1195.0,2880.0,-4897.0,0.14,0.41,10.24,0.09,-0.05,-0.01
3.0,0.0,943359.0,-1137.0,2833.0,-4871.0,0.04,0.38,10.29,0.07,-0.02,-0.02
3.0,0.0,957031.0,-992.0,2789.0,-4925.0,0.05,0.36,10.07,0.04,-0.1,-0.03
3.0,0.0,970703.0,-1047.0,2829.0,-4862.0,0.11,0.35,10.17,0.06,-0.16,-0.02
3.0,0.0,984375.0,-1008.0,2810.0,-4936.0,0.15,0.31,10.07,0.07,-0.24,0.0
3.0,0.0,998047.0,-1109.0,2828.0,-4972.0,0.13,0.31,10.01,0.08,-0.24,0.0
3.0,0.0,1011719.0,-1185.0,2897.0,-4873.0,0.39,0.38,10.3,0.09,-0.22,-0.01
3.0,0.0,1025390.0,-1060.0,2866.0,-4842.0,0.57,0.31,10.24,0.06,-0.25,-0.01
3.0,0.0,1039062.0,-1044.0,2803.0,-4926.0,0.89,0.17,9.93,0.03,-0.45,0.03
3.0,0.0,1052734.0,-1163.0,2806.0,-4960.0,1.66,-0.18,9.93,0.06,-1.47,0.22
3.0,0.0,1066406.0,-1180.0,2776.0,-5178.0,2.28,-0.93,10.87,0.03,-2.54,0.34
3.0,0.0,1080078.0,-1513.0,2839.0,-5375.0,3.05,-0.11,10.12,-0.5,-6.04,0.63
3.0,0.0,1093750.0,-1793.0,2877.0,-5461.0,3.29,0.69,9.92,-0.7,-7.43,0.58
3.0,0.0,1107422.0,-2046.0,2857.0,-5552.0,1.91,1.08,10.88,-0.44,-8.46,-0.0
3.0,0.0,1121094.0,-2356.0,2887.0,-5823.0,2.72,0.55,10.26,-0.14,-7.8,-0.23
3.0,0.0,1134765.0,-2731.0,2914.0,-5995.0,4.2,0.28,8.63,-0.06,-6.48,-0.4
3.0,0.0,1148437.0,-2929.0,2954.0,-6011.0,5.61,-0.33,8.2,-0.45,-2.19,-0.43
3.0,0.0,1162109.0,-2875.0,3013.0,-5916.0,4.56,-1.06,7.77,-0.78,0.5,-0.26
3.0,0.0,1175781.0,-2647.0,3099.0,-5684.0,1.41,0.64,4.37,-1.2,6.76,0.46
3.0,0.0,1189453.0,-2117.0,3040.0,-5481.0,-0.5,0.34,7.9,-0.32,9.2,0.62
3.0,0.0,1203125.0,-1624.0,2977.0,-5352.0,-0.33,0.88,15.56,0.92,11.48,0.54
3.0,0.0,1216797.0,-1307.0,2902.0,-4978.0,-0.02,1.23,16.96,0.62,11.8,0.4
3.0,0.0,1230469.0,-993.0,2921.0,-4476.0,-0.2,2.43,12.82,0.18,11.66,0.07
3.0,0.0,1244140.0,-621.0,2949.0,-3926.0,-1.34,2.16,10.59,0.65,10.56,-1.3
3.0,0.0,1257812.0,-438.0,2975.0,-3564.0,-2.42,1.79,9.11,1.13,9.96,-1.89
3.0,0.0,1271484.0,-199.0,3013.0,-3272.0,-3.78,-3.36,6.73,1.91,7.81,-2.56
3.0,0.0,1285156.0,-171.0,3071.0,-3122.0,-2.91,-4.43,6.78,1.54,5.34,-1.98
3.0,0.0,1298828.0,-338.0,3129.0,-3084.0,-2.53,-3.41,7.65,0.46,0.49,-0.32
3.0,0.0,1312500.0,-378.0,3130.0,-3146.0,-1.49,-4.35,8.31,-0.16,-1.73,0.35
3.0,0.0,1326172.0,-269.0,3064.0,-3355.0,-1.23,-1.73,10.52,-1.15,-7.62,1.34
3.0,0.0,1339844.0,-556.0,3037.0,-3924.0,-1.7,0.07,11.53,-3.36,-10.65,1.45
3.0,0.0,1353515.0,-669.0,3080.0,-4376.0,-1.8,1.56,11.04,-3.86,-12.9,1.22
3.0,0.0,1367187.0,-1053.0,3126.0,-4875.0,-1.7,-0.14,9.92,-2.36,-13.78,0.22
3.0,0.0,1380859.0,-1587.0,3217.0,-5200.0,-0.65,-0.66,11.18,-0.84,-13.11,-0.41
3.0,0.0,1394531.0,-2009.0,3254.0,-5337.0,2.51,-0.27,11.94,0.98,-10.87,-1.43
3.0,0.0,1408203.0,-2313.0,3198.0,-5536.0,4.73,-0.04,11.1,1.08,-9.26,-1.48
3.0,0.0,1421875.0,-2695.0,3218.0,-5631.0,6.69,0.14,9.41,0.57,-6.05,-1.05
3.0,0.0,1435547.0,-3020.0,3225.0,-5771.0,6.08,-0.07,9.01,0.18,-4.54,-0.73
3.0,0.0,1449219.0,-3161.0,3253.0,-5865.0,5.4,-0.62,6.34,-0.03,-3.03,-0.47
3.0,0.0,1462890.0,-3247.0,3283.0,-5817.0,4.04,-0.81,5.16,-0.12,0.06,-0.17
3.0,0.0,1476562.0,-3106.0,3299.0,-5666.0,3.95,-0.78,5.66,0.3,1.97,0.04
3.0,0.0,1490234.0,-2809.0,3212.0,-5678.0,3.83,0.39,6.79,0.92,6.57,0.73
3.0,0.0,1503906.0,-2456.0,3137.0,-5635.0,3.82,0.73,9.48,1.22,8.67,1.21
3.0,0.0,1517578.0,-1559.0,2995.0,-5282.0,2.55,1.06,14.51,1.32,10.68,1.64
3.0,0.0,1531250.0,-1397.0,2887.0,-4999.0,0.87,0.72,15.56,1.1,10.43,1.35
3.0,0.0,1544922.0,-1189.0,2916.0,-4688.0,-0.99,1.0,12.5,0.71,9.77,-0.05
3.0,0.0,1558594.0,-853.0,2933.0,-4368.0,-1.52,0.73,10.69,-0.07,8.51,-0.67
3.0,0.0,1572265.0,-547.0,2908.0,-4136.0,-1.95,0.26,8.98,0.05,7.92,-1.15
3.0,0.0,1585937.0,-510.0,2952.0,-3935.0,-0.28,-4.33,5.32,0.11,4.52,-1.17
3.0,0.0,1599609.0,-643.0,3017.0,-3863.0,0.19,-3.96,5.52,-0.08,1.42,-0.69
3.0,0.0,1613281.0,-616.0,3052.0,-4121.0,-0.58,-2.35,8.57,-0.97,-4.54,-0.05
3.0,0.0,1626953.0,-862.0,3087.0,-4372.0,0.23,-1.42,10.25,-1.42,-7.22,-0.0
3.0,0.0,1640625.0,-1049.0,3123.0,-4639.0,0.38,-0.64,11.67,-2.05,-11.38,-0.55
3.0,0.0,1654297.0,-1339.0,3182.0,-5006.0,0.66,-0.34,11.61,-1.66,-12.35,-1.05
3.0,0.0,1667969.0,-1839.0,3285.0,-5361.0,-0.25,-0.75,10.99,-0.77,-12.05,-1.51
3.0,0.0,1681640.0,-2342.0,3321.0,-5455.0,2.56,-0.88,10.46,0.66,-9.18,-2.01
3.0,0.0,1695312.0,-2634.0,3338.0,-5418.0,5.02,-0.47,10.39,0.44,-7.21,-1.88
3.0,0.0,1708984.0,-2913.0,3401.0,-5568.0,7.0,-0.0,9.28,-0.27,-3.56,-1.05
3.0,0.0,1722656.0,-2939.0,3389.0,-5577.0,6.42,-0.18,8.23,-0.32,-1.94,-0.66
3.0,0.0,1736328.0,-2912.0,3379.0,-5649.0,5.66,-0.55,8.12,0.21,1.07,-0.02
3.0,0.0,1750000.0,-2879.0,3397.0,-5651.0,4.73,-0.85,9.34,0.35,2.51,0.38
3.0,0.0,1763672.0,-2692.0,3403.0,-5491.0,3.9,0.38,9.01,0.33,4.43,0.97
3.0,0.0,1777344.0,-2338.0,3347.0,-5251.0,3.44,0.54,9.79,0.44,8.53,1.95
3.0,0.0,1791015.0,-1862.0,3235.0,-4998.0,3.01,0.4,11.48,0.71,9.51,2.08
3.0,0.0,1804687.0,-1319.0,3137.0,-4706.0,0.93,0.3,12.92,0.61,9.87,1.79
3.0,0.0,1818359.0,-947.0,3038.0,-4471.0,0.22,0.2,12.35,0.39,9.59,1.45
3.0,0.0,1833008.0,-834.0,3013.0,-4190.0,-1.61,-0.17,9.89,0.29,8.63,0.43
3.0,0.0,1846680.0,-733.0,3031.0,-3859.0,-2.46,-1.8,7.79,0.28,7.76,-0.05
3.0,0.0,1861328.0,-491.0,3021.0,-3672.0,-1.21,-3.49,4.86,0.05,3.12,-0.39
3.0,0.0,1875000.0,-564.0,3057.0,-3702.0,-0.91,-3.3,5.35,-0.04,0.49,-0.26
3.0,0.0,1888672.0,-459.0,3043.0,-3843.0,-0.14,-2.19,7.24,-0.24,-3.95,-0.06
3.0,0.0,1902344.0,-554.0,3019.0,-4106.0,-0.46,-1.7,10.16,-0.2,-6.26,-0.14
3.0,0.0,1916015.0,-881.0,3107.0,-4397.0,-0.56,-0.98,12.59,-0.48,-8.27,-0.35
3.0,0.0,1929687.0,-1195.0,3188.0,-4712.0,-0.66,-0.97,12.46,-1.23,-10.51,-0.91
3.0,0.0,1943359.0,-1377.0,3252.0,-4877.0,-0.5,-1.18,11.93,-0.87,-10.35,-1.19
3.0,0.0,1957031.0,-1956.0,3337.0,-5201.0,1.69,-1.15,11.46,0.13,-9.07,-1.78
3.0,0.0,1970703.0,-2230.0,3358.0,-5368.0,3.29,-0.59,10.62,0.36,-8.13,-1.85
3.0,0.0,1984375.0,-2503.0,3361.0,-5592.0,5.99,-0.35,9.57,0.46,-6.0,-1.43
3.0,0.0,1998047.0,-2814.0,3371.0,-5645.0,6.8,-0.44,8.83,0.48,-4.75,-1.06
3.0,0.0,2011719.0,-2951.0,3401.0,-5504.0,5.29,-0.75,6.68,0.29,-3.26,-0.1
3.0,0.0,2025390.0,-2879.0,3352.0,-5533.0,4.4,-0.37,4.97,0.36,0.98,0.39
3.0,0.0,2039062.0,-2669.0,3319.0,-5597.0,3.34,-0.22,4.88,0.89,3.93,0.86
3.0,0.0,2052734.0,-2142.0,3185.0,-5382.0,1.59,0.12,9.21,2.02,7.72,1.08
3.0,0.0,2066406.0,-1826.0,3053.0,-5377.0,0.9,0.15,13.18,2.28,8.34,0.99
3.0,0.0,2080078.0,-1572.0,3035.0,-5054.0,1.46,1.01,16.6,1.15,9.39,0.82
3.0,0.0,2093750.0,-1232.0,3002.0,-4640.0,2.01,2.23,15.18,0.51,9.91,0.51
3.0,0.0,2107422.0,-805.0,2940.0,-4344.0,-0.71,2.01,10.75,0.22,10.33,-0.41
3.0,0.0,2121094.0,-556.0,2952.0,-4015.0,-2.43,0.51,9.54,0.53,9.48,-0.9
3.0,0.0,2134765.0,-499.0,2981.0,-3609.0,-3.72,-1.54,7.89,0.66,8.13,-1.18
3.0,0.0,2148437.0,-322.0,2976.0,-3483.0,-1.82,-3.11,6.21,0.28,4.04,-0.65
3.0,0.0,2162109.0,-421.0,3004.0,-3448.0,-1.11,-2.09,6.09,0.07,1.87,-0.26
3.0,0.0,2175781.0,-363.0,3013.0,-3564.0,-0.14,-3.15,6.91,-0.44,-2.74,0.59
3.0,0.0,2189453.0,-291.0,2952.0,-3778.0,-1.06,-2.37,8.39,-1.0,-5.8,0.87
3.0,0.0,2203125.0,-488.0,2975.0,-4176.0,-1.68,0.03,10.65,-1.9,-10.96,0.65
3.0,0.0,2216797.0,-926.0,3028.0,-4603.0,-2.25,0.17,11.78,-1.96,-12.24,0.24
3.0,0.0,2230469.0,-1521.0,3121.0,-5128.0,-2.63,-0.73,13.72,-1.55,-12.55,-0.36
3.0,0.0,2244140.0,-1899.0,3186.0,-5343.0,-1.39,-0.83,14.42,-0.59,-10.97,-1.66
3.0,0.0,2257812.0,-2253.0,3263.0,-5400.0,1.32,-0.59,13.97,-0.45,-9.71,-2.06
3.0,0.0,2271484.0,-2485.0,3281.0,-5475.0,6.9,0.0,9.91,-0.31,-5.88,-1.84
3.0,0.0,2285156.0,-2747.0,3305.0,-5644.0,8.23,-0.14,7.49,-0.57,-4.01,-1.26
3.0,0.0,2298828.0,-2893.0,3349.0,-5556.0,5.93,-0.17,4.1,-0.55,-0.4,-0.2
3.0,0.0,2312500.0,-2855.0,3366.0,-5456.0,4.36,-0.28,4.14,0.08,1.29,0.2
3.0,0.0,2326172.0,-2662.0,3298.0,-5456.0,2.57,0.09,6.9,0.81,5.09,0.79
3.0,0.0,2339844.0,-2282.0,3217.0,-5291.0,1.9,0.72,8.41,1.69,6.89,0.98
3.0,0.0,2353515.0,-1853.0,3078.0,-5180.0,1.45,0.66,11.15,1.99,8.44,1.13
3.0,0.0,2367187.0,-1491.0,2958.0,-4937.0,2.61,1.36,14.55,1.55,10.25,1.14
3.0,0.0,2380859.0,-1236.0,2914.0,-4555.0,3.28,2.23,14.4,1.27,10.98,1.02
3.0,0.0,2394531.0,-832.0,2875.0,-4113.0,-0.3,3.25,12.69,1.03,11.9,0.11
3.0,0.0,2408203.0,-434.0,2833.0,-3737.0,-4.06,2.32,11.24,1.18,11.59,-0.71
3.0,0.0,2421875.0,-284.0,2930.0,-3215.0,-5.45,-2.76,7.16,1.34,8.79,-2.06
3.0,0.0,2435547.0,-154.0,2950.0,-2953.0,-2.79,-5.19,5.29,0.51,6.07,-1.98
3.0,0.0,2449219.0,-248.0,3014.0,-2920.0,-1.5,-4.03,5.46,-0.25,2.97,-1.3
3.0,0.0,2462890.0,-372.0,3052.0,-3001.0,-1.48,-3.22,7.21,-0.98,-2.47,0.25
3.0,0.0,2476562.0,-292.0,3037.0,-3293.0,-2.31,-2.09,9.32,-1.65,-5.63,0.75
3.0,0.0,2490234.0,-279.0,3027.0,-3648.0,-2.89,-0.3,10.16,-3.27,-11.48,0.77
3.0,0.0,2503906.0,-577.0,3065.0,-4258.0,-4.04,0.33,9.61,-3.41,-12.87,0.53
3.0,0.0,2517578.0,-959.0,3160.0,-4678.0,-2.97,-0.04,10.96,-1.16,-11.65,-0.34
3.0,0.0,2531250.0,-1409.0,3205.0,-5074.0,-1.04,-0.66,12.34,-0.08,-10.65,-0.69
3.0,0.0,2544922.0,-1781.0,3237.0,-5217.0,4.17,-0.94,12.05,0.47,-9.72,-1.03
3.0,0.0,2558594.0,-2011.0,3234.0,-5347.0,6.0,-0.94,10.7,0.5,-7.12,-0.99
3.0,0.0,2572265.0,-2153.0,3228.0,-5427.0,6.68,-0.55,8.63,0.0,-4.87,-0.69
3.0,0.0,2585937.0,-2295.0,3291.0,-5503.0,4.28,-0.15,4.73,-0.46,-0.19,0.4
3.0,0.0,2599609.0,-2266.0,3220.0,-5451.0,2.56,-0.36,5.03,0.36,1.55,0.78
3.0,0.0,2613281.0,-1961.0,3173.0,-5384.0,-0.59,-0.81,10.48,2.2,4.3,0.89
3.0,0.0,2626953.0,-1764.0,3090.0,-5170.0,-0.98,-0.65,11.69,2.32,5.64,0.77
3.0,0.0,2640625.0,-1373.0,2976.0,-4936.0,-0.15,-0.14,14.25,2.22,7.38,0.42
3.0,0.0,2654297.0,-1066.0,2857.0,-4789.0,0.6,0.6,15.63,2.03,7.9,0.28
3.0,0.0,2667969.0,-888.0,2854.0,-4491.0,1.42,1.7,15.38,1.35,8.57,0.19
3.0,0.0,2681640.0,-732.0,2846.0,-4079.0,-1.66,1.53,11.89,0.49,9.42,-0.22
3.0,0.0,2695312.0,-444.0,2845.0,-3671.0,-3.29,0.51,10.29,0.54,8.53,-0.65
3.0,0.0,2708984.0,-405.0,2910.0,-3523.0,-0.28,-2.96,5.82,-0.88,2.91,-1.05
3.0,0.0,2722656.0,-266.0,2918.0,-3609.0,0.52,-2.28,6.66,-1.34,-0.4,-0.69
3.0,0.0,2736328.0,-337.0,2926.0,-3807.0,1.3,-0.79,9.8,-2.15,-6.01,-0.03
